# Acquired on 29/01/2024 09:31:59 
# SPIDER: Creep_10mm_GRPCNT1454A-1
# CREEP MEASUREMENT

# time [ms]		force [N]		stiffness [N/mm]
0.000			-36.892			-3.689
104.000			-37.166			-3.717
204.000			-36.996			-3.700
304.000			-36.701			-3.670
405.000			-36.480			-3.648
504.000			-36.299			-3.630
604.000			-36.146			-3.615
705.000			-35.889			-3.589
803.000			-35.781			-3.578
904.000			-35.682			-3.568
1005.000			-35.591			-3.559
1104.000			-35.507			-3.551
1205.000			-35.430			-3.543
1303.000			-35.356			-3.536
1404.000			-35.224			-3.522
1505.000			-35.164			-3.516
1604.000			-35.107			-3.511
1704.000			-35.053			-3.505
1805.000			-35.002			-3.500
1904.000			-34.953			-3.495
2003.000			-34.906			-3.491
2105.000			-34.861			-3.486
2204.000			-34.777			-3.478
2304.000			-34.735			-3.474
2405.000			-34.696			-3.470
2503.000			-34.660			-3.466
2604.000			-34.625			-3.462
2705.000			-34.590			-3.459
2804.000			-34.557			-3.456
2904.000			-34.494			-3.449
3005.000			-34.463			-3.446
3104.000			-34.433			-3.443
3203.000			-34.404			-3.440
3305.000			-34.376			-3.438
3404.000			-34.349			-3.435
3504.000			-34.323			-3.432
3605.000			-34.271			-3.427
3703.000			-34.246			-3.425
3804.000			-34.223			-3.422
3905.000			-34.199			-3.420
4004.000			-34.176			-3.418
4104.000			-34.153			-3.415
4204.000			-34.131			-3.413
4304.000			-34.111			-3.411
4403.000			-34.070			-3.407
4504.000			-34.049			-3.405
4604.000			-34.029			-3.403
4705.000			-34.009			-3.401
4804.000			-33.991			-3.399
4904.000			-33.972			-3.397
5005.000			-33.954			-3.395
5104.000			-33.919			-3.392
5204.000			-33.902			-3.390
5305.000			-33.883			-3.388
5404.000			-33.866			-3.387
5504.000			-33.851			-3.385
5604.000			-33.835			-3.383
5704.000			-33.819			-3.382
5804.000			-33.788			-3.379
5905.000			-33.773			-3.377
6004.000			-33.759			-3.376
6104.000			-33.744			-3.374
6205.000			-33.728			-3.373
6303.000			-33.713			-3.371
6404.000			-33.699			-3.370
6505.000			-33.685			-3.368
6604.000			-33.657			-3.366
6704.000			-33.644			-3.364
6805.000			-33.631			-3.363
6904.000			-33.618			-3.362
7003.000			-33.606			-3.361
7105.000			-33.594			-3.359
7204.000			-33.581			-3.358
7304.000			-33.557			-3.356
7405.000			-33.544			-3.354
7503.000			-33.531			-3.353
7605.000			-33.520			-3.352
7704.000			-33.509			-3.351
7804.000			-33.497			-3.350
7905.000			-33.486			-3.349
8004.000			-33.465			-3.346
8104.000			-33.454			-3.345
8204.000			-33.443			-3.344
8304.000			-33.432			-3.343
8404.000			-33.421			-3.342
8505.000			-33.411			-3.341
8604.000			-33.400			-3.340
8703.000			-33.390			-3.339
8805.000			-33.370			-3.337
8904.000			-33.360			-3.336
9004.000			-33.351			-3.335
9105.000			-33.342			-3.334
9204.000			-33.330			-3.333
9304.000			-33.321			-3.332
9404.000			-33.312			-3.331
9504.000			-33.293			-3.329
9604.000			-33.283			-3.328
9705.000			-33.275			-3.328
9804.000			-33.266			-3.327
9903.000			-33.257			-3.326
10005.000			-33.248			-3.325
10104.000			-33.239			-3.324
10204.000			-33.222			-3.322
10305.000			-33.214			-3.321
10404.000			-33.205			-3.321
10504.000			-33.198			-3.320
10603.000			-33.189			-3.319
10704.000			-33.180			-3.318
10805.000			-33.172			-3.317
10904.000			-33.164			-3.316
11004.000			-33.147			-3.315
11105.000			-33.139			-3.314
11204.000			-33.132			-3.313
11303.000			-33.124			-3.312
11405.000			-33.117			-3.312
11504.000			-33.110			-3.311
11604.000			-33.102			-3.310
11705.000			-33.086			-3.309
11803.000			-33.078			-3.308
11904.000			-33.072			-3.307
12005.000			-33.064			-3.306
12104.000			-33.057			-3.306
12204.000			-33.050			-3.305
12305.000			-33.043			-3.304
12404.000			-33.029			-3.303
12503.000			-33.023			-3.302
12605.000			-33.015			-3.302
12704.000			-33.009			-3.301
12804.000			-33.001			-3.300
12905.000			-32.994			-3.299
13004.000			-32.987			-3.299
13104.000			-32.981			-3.298
13204.000			-32.968			-3.297
13304.000			-32.961			-3.296
13404.000			-32.955			-3.296
13505.000			-32.949			-3.295
13604.000			-32.943			-3.294
13703.000			-32.936			-3.294
13805.000			-32.928			-3.293
13904.000			-32.918			-3.292
14005.000			-32.912			-3.291
14104.000			-32.905			-3.290
14204.000			-32.898			-3.290
14305.000			-32.893			-3.289
14403.000			-32.886			-3.289
14504.000			-32.880			-3.288
14605.000			-32.870			-3.287
14704.000			-32.863			-3.286
14804.000			-32.856			-3.286
14905.000			-32.850			-3.285
15004.000			-32.844			-3.284
15103.000			-32.840			-3.284
15205.000			-32.835			-3.284
15304.000			-32.829			-3.283
15404.000			-32.817			-3.282
15505.000			-32.811			-3.281
15604.000			-32.806			-3.281
15704.000			-32.801			-3.280
15804.000			-32.795			-3.280
15904.000			-32.790			-3.279
16004.000			-32.785			-3.278
16105.000			-32.774			-3.277
16204.000			-32.768			-3.277
16304.000			-32.763			-3.276
16405.000			-32.758			-3.276
16503.000			-32.753			-3.275
16604.000			-32.747			-3.275
16705.000			-32.741			-3.274
16804.000			-32.732			-3.273
16904.000			-32.727			-3.273
17004.000			-32.722			-3.272
17104.000			-32.717			-3.272
17203.000			-32.713			-3.271
17304.000			-32.707			-3.271
17404.000			-32.701			-3.270
17505.000			-32.696			-3.270
17604.000			-32.687			-3.269
17704.000			-32.682			-3.268
17805.000			-32.678			-3.268
17903.000			-32.672			-3.267
18004.000			-32.667			-3.267
18105.000			-32.663			-3.266
18204.000			-32.659			-3.266
18304.000			-32.649			-3.265
18405.000			-32.644			-3.264
18504.000			-32.638			-3.264
18603.000			-32.634			-3.263
18705.000			-32.631			-3.263
18804.000			-32.627			-3.263
18904.000			-32.623			-3.262
19005.000			-32.612			-3.261
19104.000			-32.608			-3.261
19204.000			-32.604			-3.260
19304.000			-32.599			-3.260
19404.000			-32.596			-3.260
19504.000			-32.591			-3.259
19605.000			-32.585			-3.259
19704.000			-32.581			-3.258
19804.000			-32.572			-3.257
19905.000			-32.567			-3.257
20003.000			-32.564			-3.256
20104.000			-32.560			-3.256
20205.000			-32.556			-3.256
20304.000			-32.551			-3.255
20405.000			-32.547			-3.255
20503.000			-32.538			-3.254
20604.000			-32.534			-3.253
20705.000			-32.529			-3.253
20804.000			-32.526			-3.253
20904.000			-32.523			-3.252
21005.000			-32.519			-3.252
21104.000			-32.515			-3.251
21203.000			-32.506			-3.251
21305.000			-32.502			-3.250
21404.000			-32.498			-3.250
21504.000			-32.494			-3.249
21605.000			-32.490			-3.249
21704.000			-32.486			-3.249
21804.000			-32.481			-3.248
21904.000			-32.477			-3.248
22004.000			-32.471			-3.247
22104.000			-32.467			-3.247
22205.000			-32.463			-3.246
22304.000			-32.460			-3.246
22403.000			-32.456			-3.246
22505.000			-32.453			-3.245
22604.000			-32.449			-3.245
22704.000			-32.441			-3.244
22805.000			-32.437			-3.244
22904.000			-32.433			-3.243
23004.000			-32.429			-3.243
23104.000			-32.426			-3.243
23204.000			-32.422			-3.242
23304.000			-32.418			-3.242
23404.000			-32.410			-3.241
23504.000			-32.406			-3.241
23605.000			-32.403			-3.240
23704.000			-32.399			-3.240
23803.000			-32.396			-3.240
23905.000			-32.393			-3.239
24004.000			-32.390			-3.239
24104.000			-32.386			-3.239
24205.000			-32.379			-3.238
24304.000			-32.376			-3.238
24404.000			-32.372			-3.237
24504.000			-32.369			-3.237
24604.000			-32.366			-3.237
24704.000			-32.362			-3.236
24805.000			-32.358			-3.236
24904.000			-32.351			-3.235
25004.000			-32.347			-3.235
25105.000			-32.344			-3.234
25204.000			-32.341			-3.234
25304.000			-32.338			-3.234
25405.000			-32.335			-3.234
25504.000			-32.332			-3.233
25604.000			-32.324			-3.232
25704.000			-32.320			-3.232
25804.000			-32.317			-3.232
25904.000			-32.314			-3.231
26005.000			-32.312			-3.231
26104.000			-32.309			-3.231
26204.000			-32.305			-3.231
26305.000			-32.302			-3.230
26403.000			-32.296			-3.230
26504.000			-32.292			-3.229
26605.000			-32.289			-3.229
26704.000			-32.286			-3.229
26805.000			-32.282			-3.228
26904.000			-32.279			-3.228
27004.000			-32.277			-3.228
27104.000			-32.270			-3.227
27204.000			-32.267			-3.227
27304.000			-32.263			-3.226
27405.000			-32.260			-3.226
27504.000			-32.258			-3.226
27603.000			-32.255			-3.226
27705.000			-32.252			-3.225
27804.000			-32.246			-3.225
27904.000			-32.243			-3.224
28005.000			-32.240			-3.224
28104.000			-32.237			-3.224
28204.000			-32.234			-3.223
28304.000			-32.230			-3.223
28404.000			-32.226			-3.223
28504.000			-32.224			-3.222
28605.000			-32.219			-3.222
28704.000			-32.216			-3.222
28804.000			-32.212			-3.221
28905.000			-32.210			-3.221
29003.000			-32.207			-3.221
29104.000			-32.205			-3.220
29205.000			-32.201			-3.220
29304.000			-32.196			-3.220
29404.000			-32.193			-3.219
29505.000			-32.190			-3.219
29604.000			-32.187			-3.219
29703.000			-32.185			-3.218
29805.000			-32.181			-3.218
29904.000			-32.178			-3.218
30005.000			-32.173			-3.217
30104.000			-32.170			-3.217
30204.000			-32.168			-3.217
30305.000			-32.165			-3.216
30404.000			-32.162			-3.216
30504.000			-32.158			-3.216
30605.000			-32.156			-3.216
30704.000			-32.153			-3.215
30804.000			-32.148			-3.215
30904.000			-32.145			-3.215
31004.000			-32.143			-3.214
31104.000			-32.139			-3.214
31205.000			-32.137			-3.214
31304.000			-32.135			-3.214
31404.000			-32.133			-3.213
31505.000			-32.127			-3.213
31603.000			-32.125			-3.212
31704.000			-32.122			-3.212
31805.000			-32.119			-3.212
31904.000			-32.117			-3.212
32004.000			-32.114			-3.211
32104.000			-32.111			-3.211
32204.000			-32.105			-3.210
32304.000			-32.102			-3.210
32405.000			-32.100			-3.210
32504.000			-32.097			-3.210
32604.000			-32.094			-3.209
32705.000			-32.091			-3.209
32803.000			-32.089			-3.209
32904.000			-32.086			-3.209
33005.000			-32.080			-3.208
33104.000			-32.079			-3.208
33205.000			-32.077			-3.208
33304.000			-32.074			-3.207
33404.000			-32.072			-3.207
33504.000			-32.068			-3.207
33604.000			-32.065			-3.207
33704.000			-32.061			-3.206
33805.000			-32.058			-3.206
33904.000			-32.057			-3.206
34003.000			-32.054			-3.205
34105.000			-32.051			-3.205
34204.000			-32.049			-3.205
34304.000			-32.046			-3.205
34405.000			-32.044			-3.204
34504.000			-32.042			-3.204
34604.000			-32.039			-3.204
34704.000			-32.034			-3.203
34804.000			-32.031			-3.203
34904.000			-32.028			-3.203
35005.000			-32.027			-3.203
35104.000			-32.026			-3.203
35203.000			-32.022			-3.202
35305.000			-32.020			-3.202
35404.000			-32.017			-3.202
35504.000			-32.013			-3.201
35605.000			-32.012			-3.201
35704.000			-32.010			-3.201
35804.000			-32.007			-3.201
35904.000			-32.004			-3.200
36004.000			-32.002			-3.200
36104.000			-32.000			-3.200
36204.000			-31.997			-3.200
36304.000			-31.994			-3.199
36405.000			-31.991			-3.199
36504.000			-31.989			-3.199
36603.000			-31.987			-3.199
36705.000			-31.983			-3.198
36804.000			-31.980			-3.198
36904.000			-31.978			-3.198
37005.000			-31.975			-3.197
37104.000			-31.973			-3.197
37204.000			-31.971			-3.197
37304.000			-31.969			-3.197
37404.000			-31.964			-3.196
37504.000			-31.962			-3.196
37605.000			-31.961			-3.196
37704.000			-31.958			-3.196
37804.000			-31.956			-3.196
37905.000			-31.955			-3.195
38003.000			-31.953			-3.195
38104.000			-31.948			-3.195
38205.000			-31.945			-3.194
38304.000			-31.942			-3.194
38404.000			-31.939			-3.194
38505.000			-31.938			-3.194
38604.000			-31.937			-3.194
38703.000			-31.934			-3.193
38805.000			-31.931			-3.193
38904.000			-31.928			-3.193
39004.000			-31.924			-3.192
39105.000			-31.921			-3.192
39204.000			-31.919			-3.192
39304.000			-31.918			-3.192
39403.000			-31.917			-3.192
39504.000			-31.912			-3.191
39605.000			-31.909			-3.191
39704.000			-31.908			-3.191
39804.000			-31.906			-3.191
39905.000			-31.904			-3.190
40004.000			-31.901			-3.190
40103.000			-31.899			-3.190
40205.000			-31.897			-3.190
40304.000			-31.894			-3.189
40404.000			-31.892			-3.189
40505.000			-31.888			-3.189
40604.000			-31.887			-3.189
40704.000			-31.885			-3.189
40804.000			-31.883			-3.188
40904.000			-31.881			-3.188
41004.000			-31.876			-3.188
41105.000			-31.874			-3.187
41204.000			-31.872			-3.187
41304.000			-31.870			-3.187
41405.000			-31.869			-3.187
41503.000			-31.866			-3.187
41604.000			-31.864			-3.186
41705.000			-31.860			-3.186
41804.000			-31.857			-3.186
41904.000			-31.856			-3.186
42004.000			-31.855			-3.186
42104.000			-31.853			-3.185
42204.000			-31.849			-3.185
42305.000			-31.848			-3.185
42404.000			-31.846			-3.185
42504.000			-31.842			-3.184
42605.000			-31.840			-3.184
42703.000			-31.839			-3.184
42805.000			-31.836			-3.184
42904.000			-31.833			-3.183
43004.000			-31.832			-3.183
43105.000			-31.831			-3.183
43204.000			-31.826			-3.183
43304.000			-31.825			-3.182
43404.000			-31.824			-3.182
43504.000			-31.823			-3.182
43604.000			-31.820			-3.182
43705.000			-31.816			-3.182
43804.000			-31.814			-3.181
43904.000			16.551			1.655
44079.000			-31.808			-3.181
44167.000			-31.806			-3.181
44256.000			-31.804			-3.180
44344.000			-31.803			-3.180
44432.000			-31.801			-3.180
44520.000			-31.799			-3.180
44608.000			-31.796			-3.180
44704.000			-31.795			-3.179
44804.000			-31.793			-3.179
44904.000			-31.791			-3.179
45004.000			-31.789			-3.179
45104.000			-31.787			-3.179
45205.000			-31.785			-3.179
45304.000			-31.784			-3.178
45404.000			-31.781			-3.178
45505.000			-31.779			-3.178
45603.000			-31.776			-3.178
45704.000			-31.774			-3.177
45805.000			-31.772			-3.177
45904.000			-31.770			-3.177
46005.000			-31.769			-3.177
46104.000			-31.767			-3.177
46204.000			-31.764			-3.176
46304.000			-31.761			-3.176
46404.000			-31.760			-3.176
46504.000			-31.758			-3.176
46605.000			-31.756			-3.176
46704.000			-31.755			-3.175
46804.000			-31.754			-3.175
46905.000			-31.750			-3.175
47003.000			-31.748			-3.175
47104.000			-31.745			-3.174
47205.000			-31.744			-3.174
47304.000			-31.743			-3.174
47404.000			-31.741			-3.174
47505.000			-31.739			-3.174
47604.000			-31.736			-3.174
47703.000			-31.734			-3.173
47805.000			-31.732			-3.173
47904.000			-31.730			-3.173
48004.000			-31.729			-3.173
48105.000			-31.727			-3.173
48204.000			-31.725			-3.173
48304.000			-31.723			-3.172
48404.000			-31.721			-3.172
48504.000			-31.719			-3.172
48604.000			-31.717			-3.172
48705.000			-31.716			-3.172
48804.000			-31.714			-3.171
48904.000			-31.712			-3.171
49005.000			-31.710			-3.171
49103.000			-31.707			-3.171
49205.000			-31.705			-3.170
49304.000			-31.702			-3.170
49404.000			-31.701			-3.170
49505.000			-31.698			-3.170
49604.000			-31.697			-3.170
49704.000			-31.696			-3.170
49804.000			-31.692			-3.169
49904.000			-31.691			-3.169
50004.000			-31.689			-3.169
50105.000			-31.688			-3.169
50204.000			-31.686			-3.169
50304.000			-31.686			-3.169
50405.000			-31.683			-3.168
50503.000			-31.681			-3.168
50604.000			-31.678			-3.168
50705.000			-31.677			-3.168
50804.000			-31.675			-3.167
50904.000			-31.673			-3.167
51004.000			-31.671			-3.167
51104.000			-31.670			-3.167
51203.000			-31.669			-3.167
51305.000			-31.665			-3.166
51404.000			-31.663			-3.166
51504.000			-31.662			-3.166
51605.000			-31.661			-3.166
51703.000			-31.659			-3.166
51804.000			-31.657			-3.166
51905.000			-31.655			-3.166
52004.000			-31.653			-3.165
52104.000			-31.651			-3.165
52204.000			-31.649			-3.165
52304.000			-31.648			-3.165
52403.000			-31.646			-3.165
52504.000			-31.645			-3.164
52604.000			-31.643			-3.164
52705.000			-31.641			-3.164
52804.000			-31.638			-3.164
52904.000			-31.637			-3.164
53005.000			-31.636			-3.164
53103.000			-31.633			-3.163
53204.000			-31.630			-3.163
53305.000			-31.629			-3.163
53404.000			-31.628			-3.163
53504.000			-31.626			-3.163
53605.000			-31.624			-3.162
53704.000			-31.622			-3.162
53803.000			-31.620			-3.162
53905.000			-31.619			-3.162
54004.000			-31.618			-3.162
54104.000			-31.617			-3.162
54205.000			-31.615			-3.161
54303.000			-31.613			-3.161
54404.000			-31.611			-3.161
54505.000			-31.609			-3.161
54604.000			-31.607			-3.161
54704.000			-31.606			-3.161
54805.000			-31.605			-3.160
54904.000			-31.601			-3.160
55003.000			-31.600			-3.160
55105.000			-31.598			-3.160
55204.000			-31.597			-3.160
55304.000			-31.596			-3.160
55405.000			-31.594			-3.159
55504.000			-31.591			-3.159
55605.000			-31.590			-3.159
55703.000			-31.588			-3.159
55804.000			-31.587			-3.159
55905.000			-31.585			-3.158
56004.000			-31.584			-3.158
56104.000			-31.583			-3.158
56205.000			-31.581			-3.158
56304.000			-31.578			-3.158
56403.000			-31.576			-3.158
56505.000			-31.574			-3.157
56604.000			-31.573			-3.157
56704.000			-31.571			-3.157
56805.000			-31.570			-3.157
56904.000			-31.568			-3.157
57004.000			-31.568			-3.157
57104.000			-31.564			-3.156
57204.000			-31.563			-3.156
57304.000			-31.561			-3.156
57405.000			-31.559			-3.156
57504.000			-31.557			-3.156
57604.000			-31.556			-3.156
57705.000			-31.556			-3.156
57803.000			-31.554			-3.155
57904.000			-31.551			-3.155
58005.000			-31.550			-3.155
58104.000			-31.549			-3.155
58204.000			-31.548			-3.155
58305.000			-31.546			-3.155
58404.000			-31.544			-3.154
58503.000			-31.542			-3.154
58605.000			-31.540			-3.154
58704.000			-31.539			-3.154
58805.000			-31.537			-3.154
58904.000			-31.536			-3.154
59004.000			-31.534			-3.153
59105.000			-31.533			-3.153
59203.000			-31.531			-3.153
59304.000			-31.529			-3.153
59405.000			-31.528			-3.153
59504.000			-31.527			-3.153
59604.000			-31.525			-3.152
59705.000			-31.522			-3.152
59804.000			-31.521			-3.152
59903.000			-31.520			-3.152
60005.000			-31.518			-3.152
60104.000			-31.516			-3.152
60204.000			-31.516			-3.152
60305.000			-31.516			-3.152
60403.000			-31.513			-3.151
60504.000			-31.511			-3.151
60605.000			-31.509			-3.151
60704.000			-31.508			-3.151
60804.000			-31.505			-3.151
60905.000			-31.504			-3.150
61004.000			-31.503			-3.150
61103.000			-31.502			-3.150
61205.000			-31.500			-3.150
61304.000			-31.499			-3.150
61404.000			-31.497			-3.150
61505.000			-31.495			-3.150
61604.000			-31.494			-3.149
61704.000			-31.493			-3.149
61803.000			-31.492			-3.149
61904.000			-31.491			-3.149
62005.000			-31.489			-3.149
62104.000			-31.487			-3.149
62204.000			-31.485			-3.148
62305.000			-31.482			-3.148
62404.000			-31.482			-3.148
62503.000			-31.480			-3.148
62605.000			-31.478			-3.148
62704.000			-31.477			-3.148
62804.000			-31.475			-3.148
62905.000			-31.474			-3.147
63004.000			-31.471			-3.147
63104.000			-31.470			-3.147
63204.000			-31.468			-3.147
63304.000			-31.467			-3.147
63404.000			-31.467			-3.147
63505.000			-31.466			-3.147
63604.000			-31.464			-3.146
63703.000			-31.461			-3.146
63805.000			-31.460			-3.146
63904.000			-31.458			-3.146
64004.000			-31.457			-3.146
64105.000			-31.457			-3.146
64204.000			-31.456			-3.146
64304.000			-31.453			-3.145
64404.000			-31.452			-3.145
64504.000			-31.450			-3.145
64604.000			-31.449			-3.145
64705.000			-31.448			-3.145
64804.000			-31.446			-3.145
64904.000			-31.444			-3.144
65005.000			-31.444			-3.144
65103.000			-31.442			-3.144
65205.000			-31.439			-3.144
65304.000			-31.439			-3.144
65404.000			-31.438			-3.144
65505.000			-31.436			-3.144
65604.000			-31.436			-3.144
65704.000			-31.434			-3.143
65804.000			-31.433			-3.143
65904.000			-31.429			-3.143
66004.000			-31.428			-3.143
66105.000			-31.427			-3.143
66204.000			-31.426			-3.143
66304.000			-31.425			-3.143
66405.000			-31.424			-3.142
66503.000			-31.422			-3.142
66604.000			-31.420			-3.142
66705.000			-31.419			-3.142
66804.000			-31.417			-3.142
66904.000			-31.417			-3.142
67005.000			-31.415			-3.142
67104.000			-31.413			-3.141
67203.000			-31.412			-3.141
67305.000			-31.410			-3.141
67404.000			-31.410			-3.141
67504.000			-31.408			-3.141
67605.000			-31.406			-3.141
67704.000			-31.405			-3.140
67804.000			-31.403			-3.140
67904.000			-31.403			-3.140
68004.000			-31.402			-3.140
68104.000			-31.399			-3.140
68204.000			-31.398			-3.140
68304.000			-31.396			-3.140
68405.000			-31.395			-3.139
68504.000			-31.394			-3.139
68603.000			-31.393			-3.139
68705.000			-31.391			-3.139
68804.000			-31.389			-3.139
68904.000			-31.389			-3.139
69005.000			-31.389			-3.139
69104.000			-31.386			-3.139
69204.000			-31.384			-3.138
69304.000			-31.384			-3.138
69404.000			-31.382			-3.138
69504.000			-31.380			-3.138
69605.000			-31.379			-3.138
69704.000			-31.377			-3.138
69804.000			-31.376			-3.138
69905.000			-31.374			-3.137
70003.000			-31.373			-3.137
70104.000			-31.372			-3.137
70205.000			-31.371			-3.137
70304.000			-31.369			-3.137
70404.000			-31.367			-3.137
70505.000			-31.367			-3.137
70604.000			-31.366			-3.137
70703.000			-31.364			-3.136
70805.000			-31.363			-3.136
70904.000			-31.362			-3.136
71004.000			-31.360			-3.136
71105.000			-31.358			-3.136
71204.000			-31.357			-3.136
71304.000			-31.356			-3.136
71403.000			-31.354			-3.135
71504.000			-31.353			-3.135
71605.000			-31.353			-3.135
71704.000			-31.352			-3.135
71804.000			-31.350			-3.135
71905.000			-31.348			-3.135
72004.000			-31.346			-3.135
72103.000			-31.346			-3.135
72205.000			-31.344			-3.134
72304.000			-31.343			-3.134
72404.000			-31.343			-3.134
72505.000			-31.339			-3.134
72604.000			-31.338			-3.134
72704.000			-31.338			-3.134
72804.000			-31.337			-3.134
72904.000			-31.335			-3.133
73004.000			-31.334			-3.133
73105.000			-31.334			-3.133
73204.000			-31.331			-3.133
73303.000			-31.330			-3.133
73405.000			-31.328			-3.133
73504.000			-31.326			-3.133
73604.000			-31.326			-3.133
73705.000			-31.326			-3.133
73804.000			-31.323			-3.132
73904.000			-31.322			-3.132
74004.000			-31.320			-3.132
74104.000			-31.319			-3.132
74204.000			-31.318			-3.132
74305.000			-31.317			-3.132
74404.000			-31.315			-3.132
74504.000			-31.315			-3.131
74605.000			-31.314			-3.131
74703.000			-31.311			-3.131
74805.000			-31.310			-3.131
74904.000			-31.309			-3.131
75004.000			-31.308			-3.131
75105.000			-31.309			-3.131
75204.000			-31.307			-3.131
75304.000			-31.305			-3.130
75404.000			-31.303			-3.130
75504.000			-31.302			-3.130
75604.000			-31.300			-3.130
75705.000			-31.299			-3.130
75804.000			-31.299			-3.130
75904.000			-31.298			-3.130
76005.000			-31.296			-3.130
76103.000			-31.296			-3.130
76204.000			-31.293			-3.129
76305.000			-31.291			-3.129
76404.000			-31.290			-3.129
76504.000			-31.291			-3.129
76605.000			-31.289			-3.129
76704.000			-31.287			-3.129
76803.000			-31.288			-3.129
76905.000			-31.285			-3.129
77004.000			-31.285			-3.128
77104.000			-31.283			-3.128
77205.000			-31.281			-3.128
77304.000			-31.280			-3.128
77404.000			-31.280			-3.128
77504.000			-31.278			-3.128
77604.000			-31.277			-3.128
77703.000			-31.276			-3.128
77805.000			-31.275			-3.127
77904.000			-31.273			-3.127
78005.000			-31.271			-3.127
78104.000			-31.272			-3.127
78203.000			-31.270			-3.127
78305.000			-31.269			-3.127
78403.000			-31.267			-3.127
78504.000			-31.267			-3.127
78605.000			-31.265			-3.127
78704.000			-31.263			-3.126
78804.000			-31.262			-3.126
78905.000			-31.261			-3.126
79004.000			-31.260			-3.126
79103.000			-31.259			-3.126
79205.000			-31.257			-3.126
79304.000			-31.256			-3.126
79404.000			-31.255			-3.126
79505.000			-31.254			-3.125
79604.000			-31.253			-3.125
79704.000			-31.253			-3.125
79804.000			-31.249			-3.125
79904.000			-31.248			-3.125
80004.000			-31.248			-3.125
80105.000			-31.246			-3.125
80204.000			-31.245			-3.124
80303.000			-31.245			-3.125
80405.000			-31.244			-3.124
80504.000			-31.242			-3.124
80604.000			-31.240			-3.124
80705.000			-31.238			-3.124
80804.000			-31.238			-3.124
80904.000			-31.236			-3.124
81003.000			-31.236			-3.124
81104.000			-31.235			-3.123
81205.000			-31.233			-3.123
81304.000			-31.234			-3.123
81404.000			-31.232			-3.123
81505.000			-31.231			-3.123
81604.000			-31.229			-3.123
81703.000			-31.229			-3.123
81805.000			-31.227			-3.123
81904.000			-31.225			-3.123
82004.000			-31.224			-3.122
82105.000			-31.223			-3.122
82204.000			-31.223			-3.122
82304.000			-31.221			-3.122
82404.000			-31.220			-3.122
82504.000			-31.218			-3.122
82604.000			-31.218			-3.122
82705.000			-31.216			-3.122
82804.000			-31.215			-3.121
82904.000			-31.213			-3.121
83005.000			-31.213			-3.121
83103.000			-31.211			-3.121
83204.000			-31.210			-3.121
83305.000			-31.210			-3.121
83404.000			-31.209			-3.121
83504.000			-31.207			-3.121
83604.000			-31.206			-3.121
83704.000			-31.205			-3.120
83804.000			-31.203			-3.120
83905.000			-31.202			-3.120
84004.000			-31.202			-3.120
84104.000			-31.201			-3.120
84205.000			-31.198			-3.120
84303.000			-31.198			-3.120
84405.000			-31.198			-3.120
84504.000			-31.197			-3.120
84604.000			-31.195			-3.120
84705.000			-31.194			-3.119
84804.000			-31.194			-3.119
84904.000			-31.193			-3.119
85004.000			-31.190			-3.119
85104.000			-31.189			-3.119
85204.000			-31.189			-3.119
85305.000			-31.188			-3.119
85404.000			-31.187			-3.119
85504.000			-31.186			-3.119
85605.000			-31.184			-3.118
85703.000			-31.184			-3.118
85804.000			-31.183			-3.118
85905.000			-31.181			-3.118
86004.000			-31.180			-3.118
86104.000			-31.179			-3.118
86205.000			-31.178			-3.118
86304.000			-31.177			-3.118
86403.000			-31.175			-3.118
86505.000			-31.175			-3.117
86604.000			-31.173			-3.117
86704.000			-31.172			-3.117
86805.000			-31.171			-3.117
86904.000			-31.170			-3.117
87004.000			-31.169			-3.117
87104.000			-31.169			-3.117
87204.000			-31.165			-3.117
87303.000			-31.165			-3.117
87405.000			-31.165			-3.116
87504.000			-31.164			-3.116
87605.000			-31.163			-3.116
87704.000			-31.163			-3.116
87804.000			-31.161			-3.116
87905.000			-31.160			-3.116
88003.000			-31.158			-3.116
88104.000			-31.157			-3.116
88205.000			-31.157			-3.116
88304.000			-31.156			-3.116
88404.000			-31.155			-3.115
88505.000			-31.153			-3.115
88604.000			-31.151			-3.115
88703.000			-31.150			-3.115
88805.000			-31.150			-3.115
88904.000			-31.149			-3.115
89004.000			-31.148			-3.115
89105.000			-31.146			-3.115
89204.000			-31.146			-3.115
89304.000			-31.146			-3.115
89404.000			-31.142			-3.114
89504.000			-31.141			-3.114
89604.000			-31.141			-3.114
89705.000			-31.139			-3.114
89804.000			-31.139			-3.114
89904.000			-31.139			-3.114
90005.000			-31.138			-3.114
90103.000			-31.135			-3.114
90204.000			-31.135			-3.113
90305.000			-31.133			-3.113
90404.000			-31.133			-3.113
90504.000			-31.132			-3.113
90603.000			-31.131			-3.113
90704.000			-31.129			-3.113
90805.000			-31.128			-3.113
90904.000			-31.127			-3.113
91004.000			-31.127			-3.113
91105.000			-31.126			-3.113
91204.000			-31.124			-3.112
91303.000			-31.124			-3.112
91405.000			-31.123			-3.112
91504.000			-31.122			-3.112
91604.000			-31.119			-3.112
91705.000			-31.119			-3.112
91804.000			-31.119			-3.112
91904.000			-31.118			-3.112
92004.000			-31.116			-3.112
92104.000			-31.116			-3.112
92204.000			-31.115			-3.112
92305.000			-31.114			-3.111
92404.000			-31.112			-3.111
92504.000			-31.110			-3.111
92605.000			-31.109			-3.111
92703.000			-31.109			-3.111
92804.000			-31.109			-3.111
92905.000			-31.108			-3.111
93004.000			-31.107			-3.111
93104.000			-31.106			-3.111
93205.000			-31.105			-3.110
93304.000			-31.104			-3.110
93403.000			-31.102			-3.110
93505.000			-31.102			-3.110
93604.000			-31.101			-3.110
93704.000			-31.100			-3.110
93805.000			-31.098			-3.110
93903.000			-31.097			-3.110
94005.000			-31.096			-3.110
94103.000			-31.095			-3.110
94204.000			-31.095			-3.109
94305.000			-31.094			-3.109
94404.000			-31.093			-3.109
94504.000			-31.091			-3.109
94604.000			-31.091			-3.109
94704.000			-31.090			-3.109
94803.000			-31.089			-3.109
94905.000			-31.088			-3.109
95004.000			-31.087			-3.109
95104.000			-31.085			-3.108
95205.000			-31.083			-3.108
95304.000			-31.084			-3.108
95404.000			-31.084			-3.108
95504.000			-31.082			-3.108
95604.000			-31.081			-3.108
95704.000			-31.079			-3.108
95805.000			-31.078			-3.108
95904.000			-31.077			-3.108
96004.000			-31.077			-3.108
96105.000			-31.076			-3.108
96203.000			-31.074			-3.107
96304.000			-31.074			-3.107
96405.000			-31.074			-3.107
96504.000			-31.073			-3.107
96604.000			-31.072			-3.107
96705.000			-31.068			-3.107
96804.000			-31.069			-3.107
96903.000			-31.068			-3.107
97005.000			-31.067			-3.107
97104.000			-31.066			-3.107
97205.000			-31.065			-3.107
97304.000			-31.064			-3.106
97404.000			-31.063			-3.106
97505.000			-31.062			-3.106
97603.000			-31.061			-3.106
97704.000			-31.059			-3.106
97805.000			-31.058			-3.106
97904.000			-31.058			-3.106
98004.000			-31.057			-3.106
98105.000			-31.057			-3.106
98204.000			-31.055			-3.106
98303.000			-31.055			-3.106
98405.000			-31.054			-3.105
98504.000			-31.052			-3.105
98604.000			-31.051			-3.105
98705.000			-31.051			-3.105
98804.000			-31.050			-3.105
98904.000			-31.049			-3.105
99004.000			-31.048			-3.105
99104.000			-31.048			-3.105
99204.000			-31.046			-3.105
99305.000			-31.046			-3.105
99404.000			-31.046			-3.105
99504.000			-31.044			-3.104
99605.000			-31.042			-3.104
99703.000			-31.041			-3.104
99804.000			-31.041			-3.104
99905.000			-31.040			-3.104
100004.000			-31.040			-3.104
100104.000			-31.039			-3.104
100204.000			-31.037			-3.104
100304.000			-31.036			-3.104
100403.000			-31.034			-3.103
100504.000			-31.033			-3.103
100604.000			-31.033			-3.103
100705.000			-31.034			-3.103
100804.000			-31.033			-3.103
100904.000			-31.031			-3.103
101005.000			-31.029			-3.103
101103.000			-31.028			-3.103
101204.000			-31.028			-3.103
101305.000			-31.026			-3.103
101404.000			-31.025			-3.103
101504.000			-31.024			-3.102
101604.000			-31.025			-3.102
101704.000			-31.024			-3.102
101803.000			-31.021			-3.102
101905.000			-31.022			-3.102
102004.000			-31.021			-3.102
102104.000			-31.019			-3.102
102205.000			-31.017			-3.102
102303.000			-31.016			-3.102
102404.000			-31.016			-3.102
102505.000			-31.015			-3.102
102604.000			-31.016			-3.102
102704.000			-31.014			-3.101
102805.000			-31.013			-3.101
102904.000			-31.011			-3.101
103003.000			-31.010			-3.101
103105.000			-31.011			-3.101
103204.000			-31.011			-3.101
103304.000			-31.008			-3.101
103405.000			-31.007			-3.101
103504.000			-31.007			-3.101
103605.000			-31.005			-3.100
103703.000			-31.005			-3.100
103804.000			-31.005			-3.101
103905.000			-31.003			-3.100
104004.000			-31.001			-3.100
104104.000			-30.999			-3.100
104205.000			-30.999			-3.100
104304.000			-30.998			-3.100
104403.000			-30.997			-3.100
104505.000			-30.997			-3.100
104604.000			-30.999			-3.100
104704.000			-30.997			-3.100
104805.000			-30.994			-3.099
104904.000			-30.993			-3.099
105004.000			-30.993			-3.099
105104.000			-30.993			-3.099
105204.000			-30.992			-3.099
105304.000			-30.991			-3.099
105405.000			-30.990			-3.099
105504.000			-30.988			-3.099
105604.000			-30.988			-3.099
105705.000			-30.987			-3.099
105803.000			-30.986			-3.099
105904.000			-30.985			-3.099
106005.000			-30.985			-3.098
106104.000			-30.983			-3.098
106204.000			-30.982			-3.098
106305.000			-30.982			-3.098
106404.000			-30.981			-3.098
106504.000			-30.979			-3.098
106605.000			-30.979			-3.098
106703.000			-30.978			-3.098
106805.000			-30.977			-3.098
106904.000			-30.977			-3.098
107004.000			-30.976			-3.098
107105.000			-30.975			-3.097
107204.000			-30.974			-3.097
107304.000			-30.973			-3.097
107404.000			-30.972			-3.097
107504.000			-30.971			-3.097
107604.000			-30.970			-3.097
107705.000			-30.969			-3.097
107804.000			-30.968			-3.097
107904.000			-30.968			-3.097
108005.000			-30.967			-3.097
108104.000			-30.966			-3.097
108204.000			-30.965			-3.096
108304.000			-30.964			-3.096
108404.000			-30.962			-3.096
108504.000			-30.962			-3.096
108605.000			-30.961			-3.096
108704.000			-30.960			-3.096
108804.000			-30.961			-3.096
108905.000			-30.960			-3.096
109003.000			-30.959			-3.096
109104.000			-30.957			-3.096
109205.000			-30.956			-3.096
109304.000			-30.956			-3.096
109404.000			-30.956			-3.096
109505.000			-30.955			-3.096
109604.000			-30.953			-3.095
109703.000			-30.952			-3.095
109805.000			-30.952			-3.095
109904.000			-30.950			-3.095
110005.000			-30.948			-3.095
110104.000			-30.949			-3.095
110204.000			-30.948			-3.095
110305.000			-30.948			-3.095
110403.000			-30.947			-3.095
110504.000			-30.945			-3.094
110604.000			-30.944			-3.094
110704.000			-30.944			-3.094
110804.000			-30.944			-3.094
110905.000			-30.942			-3.094
111004.000			-30.942			-3.094
111104.000			-30.941			-3.094
111205.000			-30.941			-3.094
111303.000			-30.940			-3.094
111404.000			-30.937			-3.094
111505.000			-30.936			-3.094
111604.000			-30.935			-3.094
111704.000			-30.935			-3.094
111805.000			-30.934			-3.093
111904.000			-30.933			-3.093
112003.000			-30.934			-3.093
112105.000			-30.932			-3.093
112204.000			-30.932			-3.093
112304.000			-30.931			-3.093
112405.000			-30.930			-3.093
112504.000			-30.929			-3.093
112604.000			-30.928			-3.093
112704.000			-30.927			-3.093
112804.000			-30.926			-3.093
112904.000			-30.924			-3.092
113004.000			-30.924			-3.092
113104.000			-30.923			-3.092
113205.000			-30.922			-3.092
113304.000			-30.921			-3.092
113403.000			-30.921			-3.092
113505.000			-30.920			-3.092
113604.000			-30.921			-3.092
113704.000			-30.919			-3.092
113805.000			-30.918			-3.092
113904.000			-30.917			-3.092
114004.000			-30.916			-3.092
114104.000			-30.916			-3.092
114204.000			-30.916			-3.092
114304.000			-30.915			-3.092
114405.000			-30.914			-3.091
114504.000			-30.913			-3.091
114604.000			-30.912			-3.091
114705.000			-30.912			-3.091
114803.000			-30.912			-3.091
114904.000			-30.910			-3.091
115005.000			-30.907			-3.091
115104.000			-30.908			-3.091
115204.000			-30.907			-3.091
115305.000			-30.906			-3.091
115404.000			-30.905			-3.090
115503.000			-30.905			-3.091
115605.000			-30.905			-3.090
115704.000			-30.903			-3.090
115804.000			-30.901			-3.090
115905.000			-30.901			-3.090
116004.000			-30.901			-3.090
116104.000			-30.900			-3.090
116203.000			-30.899			-3.090
116304.000			-30.898			-3.090
116405.000			-30.896			-3.090
116504.000			-30.896			-3.090
116604.000			-30.895			-3.090
116705.000			-30.895			-3.089
116804.000			-30.894			-3.089
116903.000			-30.894			-3.089
117005.000			-30.892			-3.089
117104.000			-30.891			-3.089
117204.000			-30.890			-3.089
117305.000			-30.890			-3.089
117404.000			-30.888			-3.089
117504.000			-30.888			-3.089
117605.000			-30.888			-3.089
117704.000			-30.886			-3.089
117803.000			-30.885			-3.089
117905.000			-30.885			-3.088
118004.000			-30.884			-3.088
118104.000			-30.883			-3.088
118205.000			-30.882			-3.088
118304.000			-30.882			-3.088
118404.000			-30.882			-3.088
118504.000			-30.881			-3.088
118604.000			-30.881			-3.088
118704.000			-30.878			-3.088
118805.000			-30.877			-3.088
118904.000			-30.876			-3.088
119004.000			-30.876			-3.088
119105.000			-30.877			-3.088
119204.000			-30.875			-3.088
119304.000			-30.874			-3.087
119403.000			-30.873			-3.087
119504.000			-30.872			-3.087
119605.000			-30.872			-3.087
119704.000			-30.871			-3.087
119804.000			-30.871			-3.087
119905.000			-30.870			-3.087
120004.000			-30.869			-3.087
120103.000			-30.869			-3.087
120205.000			-30.866			-3.087
120304.000			-30.866			-3.087
120404.000			-30.866			-3.087
120505.000			-30.865			-3.087
120604.000			-30.864			-3.086
120704.000			-30.863			-3.086
120804.000			-30.862			-3.086
120904.000			-30.861			-3.086
121004.000			-30.861			-3.086
121105.000			-30.860			-3.086
121204.000			-30.858			-3.086
121304.000			-30.858			-3.086
121405.000			-30.857			-3.086
121503.000			-30.856			-3.086
121604.000			-30.855			-3.086
121705.000			-30.855			-3.085
121804.000			-30.854			-3.085
121904.000			-30.853			-3.085
122005.000			-30.853			-3.085
122104.000			-30.853			-3.085
122203.000			-30.853			-3.085
122305.000			-30.851			-3.085
122404.000			-30.850			-3.085
122504.000			-30.850			-3.085
122605.000			-30.849			-3.085
122704.000			-30.849			-3.085
122805.000			-30.848			-3.085
122904.000			-30.847			-3.085
123004.000			-30.846			-3.085
123104.000			-30.844			-3.084
123204.000			-30.843			-3.084
123304.000			-30.842			-3.084
123405.000			-30.843			-3.084
123504.000			-30.842			-3.084
123604.000			-30.841			-3.084
123705.000			-30.840			-3.084
123803.000			-30.839			-3.084
123904.000			-30.839			-3.084
124005.000			-30.838			-3.084
124104.000			-30.837			-3.084
124204.000			-30.836			-3.084
124305.000			-30.835			-3.083
124404.000			-30.835			-3.084
124503.000			-30.834			-3.083
124605.000			-30.833			-3.083
124704.000			-30.832			-3.083
124804.000			-30.831			-3.083
124905.000			-30.831			-3.083
125004.000			-30.831			-3.083
125104.000			-30.829			-3.083
125204.000			-30.828			-3.083
125304.000			-30.828			-3.083
125404.000			-30.827			-3.083
125505.000			-30.826			-3.083
125604.000			-30.826			-3.083
125704.000			-30.824			-3.082
125805.000			-30.824			-3.082
125903.000			-30.824			-3.082
126005.000			-30.822			-3.082
126104.000			-30.821			-3.082
126204.000			-30.821			-3.082
126305.000			-30.821			-3.082
126404.000			-30.820			-3.082
126504.000			-30.818			-3.082
126604.000			-30.818			-3.082
126704.000			-30.817			-3.082
126803.000			-30.815			-3.082
126905.000			-30.814			-3.081
127004.000			-30.815			-3.081
127104.000			-30.815			-3.082
127205.000			-30.814			-3.081
127304.000			-30.812			-3.081
127404.000			-30.812			-3.081
127504.000			-30.812			-3.081
127604.000			-30.810			-3.081
127704.000			-30.809			-3.081
127805.000			-30.808			-3.081
127904.000			-30.808			-3.081
128004.000			-30.807			-3.081
128105.000			-30.807			-3.081
128203.000			-30.806			-3.081
128304.000			-30.805			-3.081
128405.000			-30.805			-3.080
128504.000			-30.804			-3.080
128604.000			-30.803			-3.080
128705.000			-30.803			-3.080
128804.000			-30.801			-3.080
128903.000			-30.800			-3.080
129005.000			-30.800			-3.080
129104.000			-30.799			-3.080
129205.000			-30.798			-3.080
129304.000			-30.797			-3.080
129404.000			-30.796			-3.080
129505.000			-30.796			-3.080
129603.000			-30.795			-3.079
129704.000			-30.795			-3.079
129804.000			-30.794			-3.079
129904.000			-30.793			-3.079
130004.000			-30.792			-3.079
130105.000			-30.792			-3.079
130204.000			-30.792			-3.079
130304.000			-30.792			-3.079
130405.000			-30.790			-3.079
130503.000			-30.790			-3.079
130604.000			-30.789			-3.079
130705.000			-30.788			-3.079
130804.000			-30.787			-3.079
130904.000			-30.786			-3.079
131005.000			-30.786			-3.079
131104.000			-30.784			-3.078
131204.000			-30.784			-3.078
131305.000			-30.783			-3.078
131403.000			-30.782			-3.078
131504.000			-30.783			-3.078
131605.000			-30.782			-3.078
131704.000			-30.781			-3.078
131804.000			-30.780			-3.078
131905.000			-30.777			-3.078
132004.000			-30.777			-3.078
132103.000			-30.778			-3.078
132205.000			-30.778			-3.078
132304.000			-30.776			-3.078
132405.000			-30.775			-3.078
132504.000			-30.775			-3.078
132604.000			-30.774			-3.077
132705.000			-30.773			-3.077
132804.000			-30.772			-3.077
132904.000			-30.771			-3.077
133004.000			-30.771			-3.077
133104.000			-30.771			-3.077
133204.000			-30.770			-3.077
133305.000			-30.768			-3.077
133404.000			-30.768			-3.077
133504.000			-30.767			-3.077
133605.000			-30.766			-3.077
133704.000			-30.766			-3.077
133804.000			-30.765			-3.076
133904.000			-30.764			-3.076
134004.000			-30.763			-3.076
134104.000			-30.762			-3.076
134205.000			-30.761			-3.076
134304.000			-30.761			-3.076
134404.000			-30.761			-3.076
134505.000			-30.759			-3.076
134604.000			-30.758			-3.076
134704.000			-30.759			-3.076
134804.000			-30.757			-3.076
134904.000			-30.757			-3.076
135004.000			-30.757			-3.076
135105.000			-30.756			-3.076
135204.000			-30.755			-3.076
135304.000			-30.755			-3.076
135405.000			-30.755			-3.075
135504.000			-30.753			-3.075
135605.000			-30.753			-3.075
135703.000			-30.752			-3.075
135804.000			-30.751			-3.075
135905.000			-30.750			-3.075
136004.000			-30.749			-3.075
136104.000			-30.749			-3.075
136205.000			-30.750			-3.075
136304.000			-30.749			-3.075
136404.000			-30.747			-3.075
136505.000			-30.745			-3.075
136603.000			-30.745			-3.074
136704.000			-30.745			-3.074
136805.000			-30.744			-3.074
136904.000			-30.743			-3.074
137004.000			-30.743			-3.074
137105.000			-30.742			-3.074
137204.000			-30.742			-3.074
137304.000			-30.741			-3.074
137405.000			-30.741			-3.074
137503.000			-30.740			-3.074
137604.000			-30.738			-3.074
137705.000			-30.738			-3.074
137804.000			-30.738			-3.074
137904.000			-30.736			-3.074
138005.000			-30.735			-3.074
138104.000			-30.735			-3.073
138203.000			-30.735			-3.073
138305.000			-30.734			-3.073
138403.000			-30.734			-3.073
138504.000			-30.732			-3.073
138605.000			-30.732			-3.073
138704.000			-30.732			-3.073
138805.000			-30.732			-3.073
138904.000			-30.730			-3.073
139004.000			-30.729			-3.073
139104.000			-30.729			-3.073
139204.000			-30.728			-3.073
139303.000			-30.728			-3.073
139405.000			-30.728			-3.073
139504.000			-30.727			-3.073
139604.000			-30.726			-3.073
139705.000			-30.725			-3.073
139804.000			-30.724			-3.072
139904.000			-30.722			-3.072
140004.000			-30.722			-3.072
140104.000			-30.722			-3.072
140203.000			-30.721			-3.072
140305.000			-30.721			-3.072
140404.000			-30.720			-3.072
140504.000			-30.719			-3.072
140605.000			-30.719			-3.072
140704.000			-30.718			-3.072
140804.000			-30.717			-3.072
140904.000			-30.716			-3.072
141004.000			-30.716			-3.072
141103.000			-30.715			-3.072
141205.000			-30.714			-3.071
141304.000			-30.714			-3.071
141404.000			-30.713			-3.071
141505.000			-30.712			-3.071
141604.000			-30.711			-3.071
141704.000			-30.711			-3.071
141803.000			-30.711			-3.071
141904.000			-30.709			-3.071
142005.000			-30.708			-3.071
142104.000			-30.708			-3.071
142204.000			-30.708			-3.071
142305.000			-30.707			-3.071
142404.000			-30.706			-3.071
142503.000			-30.707			-3.071
142605.000			-30.705			-3.071
142704.000			-30.704			-3.070
142804.000			-30.704			-3.070
142905.000			-30.704			-3.070
143004.000			-30.703			-3.070
143104.000			-30.702			-3.070
143205.000			-30.701			-3.070
143304.000			-30.700			-3.070
143403.000			-30.700			-3.070
143505.000			-30.699			-3.070
143604.000			-30.698			-3.070
143704.000			-30.698			-3.070
143805.000			-30.699			-3.070
143904.000			-30.697			-3.070
144004.000			-30.697			-3.070
144105.000			-30.696			-3.070
144204.000			-30.695			-3.069
144303.000			-30.693			-3.069
144405.000			-30.693			-3.069
144504.000			-30.693			-3.069
144604.000			-30.691			-3.069
144705.000			-30.690			-3.069
144804.000			-30.690			-3.069
144904.000			-30.691			-3.069
145004.000			-30.690			-3.069
145104.000			-30.688			-3.069
145203.000			-30.687			-3.069
145304.000			-30.687			-3.069
145404.000			-30.687			-3.069
145505.000			-30.687			-3.069
145604.000			-30.686			-3.069
145704.000			-30.686			-3.069
145805.000			-30.684			-3.068
145904.000			-30.684			-3.068
146004.000			-30.685			-3.068
146104.000			-30.683			-3.068
146204.000			-30.682			-3.068
146304.000			-30.682			-3.068
146405.000			-30.681			-3.068
146504.000			-30.680			-3.068
146604.000			-30.680			-3.068
146705.000			-30.678			-3.068
146804.000			-30.677			-3.068
146904.000			-30.677			-3.068
147004.000			-30.677			-3.068
147104.000			-30.676			-3.068
147204.000			-30.675			-3.068
147305.000			-30.674			-3.067
147404.000			-30.674			-3.067
147504.000			-30.673			-3.067
147605.000			-30.672			-3.067
147704.000			-30.673			-3.067
147804.000			-30.672			-3.067
147904.000			-30.671			-3.067
148004.000			-30.670			-3.067
148104.000			-30.671			-3.067
148204.000			-30.670			-3.067
148304.000			-30.669			-3.067
148405.000			-30.668			-3.067
148504.000			-30.668			-3.067
148604.000			-30.668			-3.067
148705.000			-30.665			-3.067
148803.000			-30.664			-3.066
148904.000			-30.664			-3.066
149004.000			-30.665			-3.066
149104.000			-30.665			-3.067
149204.000			-30.664			-3.066
149305.000			-30.662			-3.066
149404.000			-30.661			-3.066
149504.000			-30.661			-3.066
149605.000			-30.660			-3.066
149703.000			-30.660			-3.066
149804.000			-30.659			-3.066
149904.000			-30.658			-3.066
150004.000			-30.657			-3.066
150104.000			-30.657			-3.066
150205.000			-30.656			-3.066
150304.000			-30.656			-3.066
150404.000			-30.656			-3.066
150505.000			-30.655			-3.066
150603.000			-30.654			-3.065
150704.000			-30.653			-3.065
150804.000			-30.654			-3.065
150904.000			-30.652			-3.065
151004.000			-30.651			-3.065
151105.000			-30.650			-3.065
151204.000			-30.650			-3.065
151304.000			-30.650			-3.065
151405.000			-30.649			-3.065
151503.000			-30.649			-3.065
151605.000			-30.647			-3.065
151704.000			-30.647			-3.065
151804.000			-30.646			-3.065
151905.000			-30.645			-3.065
152004.000			-30.645			-3.064
152104.000			-30.645			-3.064
152205.000			-30.644			-3.064
152304.000			-30.644			-3.064
152403.000			-30.642			-3.064
152505.000			-30.641			-3.064
152604.000			-30.641			-3.064
152704.000			-30.642			-3.064
152805.000			-30.641			-3.064
152904.000			-30.639			-3.064
153004.000			-30.639			-3.064
153105.000			-30.638			-3.064
153204.000			-30.637			-3.064
153303.000			-30.637			-3.064
153405.000			-30.636			-3.064
153504.000			-30.635			-3.063
153604.000			-30.634			-3.063
153705.000			-30.634			-3.063
153804.000			-30.634			-3.063
153904.000			-30.634			-3.063
154004.000			-30.633			-3.063
154104.000			-30.632			-3.063
154203.000			-30.631			-3.063
154305.000			-30.631			-3.063
154404.000			-30.630			-3.063
154504.000			-30.630			-3.063
154605.000			-30.629			-3.063
154704.000			-30.628			-3.063
154805.000			-30.628			-3.063
154903.000			-30.627			-3.063
155004.000			-30.628			-3.063
155104.000			-30.627			-3.063
155204.000			-30.626			-3.063
155304.000			-30.625			-3.063
155405.000			-30.624			-3.062
155504.000			-30.624			-3.062
155604.000			-30.624			-3.062
155705.000			-30.623			-3.062
155803.000			-30.623			-3.062
155904.000			-30.622			-3.062
156005.000			-30.621			-3.062
156104.000			-30.620			-3.062
156204.000			-30.619			-3.062
156305.000			-30.619			-3.062
156404.000			-30.618			-3.062
156504.000			-30.618			-3.062
156605.000			-30.618			-3.062
156703.000			-30.617			-3.062
156804.000			-30.616			-3.062
156905.000			-30.615			-3.062
157004.000			-30.614			-3.061
157104.000			-30.614			-3.061
157205.000			-30.614			-3.061
157304.000			-30.614			-3.061
157403.000			-30.613			-3.061
157505.000			-30.612			-3.061
157603.000			-30.612			-3.061
157704.000			-30.611			-3.061
157805.000			-30.610			-3.061
157904.000			-30.610			-3.061
158005.000			-30.609			-3.061
158104.000			-30.609			-3.061
158204.000			-30.607			-3.061
158304.000			-30.607			-3.061
158404.000			-30.606			-3.061
158503.000			-30.605			-3.061
158605.000			-30.605			-3.061
158704.000			-30.604			-3.060
158804.000			-30.605			-3.060
158905.000			-30.604			-3.060
159004.000			-30.603			-3.060
159104.000			-30.602			-3.060
159204.000			-30.602			-3.060
159304.000			-30.601			-3.060
159403.000			-30.599			-3.060
159505.000			-30.600			-3.060
159604.000			-30.600			-3.060
159704.000			-30.599			-3.060
159805.000			-30.599			-3.060
159904.000			-30.597			-3.060
160004.000			-30.596			-3.060
160104.000			-30.595			-3.060
160204.000			-30.596			-3.060
160303.000			-30.597			-3.060
160405.000			-30.595			-3.059
160504.000			-30.595			-3.059
160604.000			-30.594			-3.059
160705.000			-30.594			-3.059
160804.000			-30.593			-3.059
160904.000			-30.591			-3.059
161004.000			-30.590			-3.059
161104.000			-30.590			-3.059
161203.000			-30.590			-3.059
161304.000			-30.591			-3.059
161404.000			-30.589			-3.059
161505.000			-30.589			-3.059
161604.000			-30.589			-3.059
161704.000			-30.588			-3.059
161805.000			-30.588			-3.059
161904.000			-30.586			-3.059
162004.000			-30.585			-3.058
162104.000			-30.584			-3.058
162204.000			-30.585			-3.058
162304.000			-30.585			-3.058
162405.000			-30.584			-3.058
162504.000			-30.583			-3.058
162604.000			-30.582			-3.058
162705.000			-30.582			-3.058
162804.000			-30.582			-3.058
162904.000			-30.581			-3.058
163004.000			-30.580			-3.058
163104.000			-30.580			-3.058
163204.000			-30.578			-3.058
163305.000			-30.578			-3.058
163404.000			-30.577			-3.058
163504.000			-30.577			-3.058
163605.000			-30.576			-3.058
163704.000			-30.575			-3.058
163804.000			-30.576			-3.058
163904.000			-30.575			-3.057
164004.000			-30.574			-3.057
164104.000			-30.573			-3.057
164204.000			-30.573			-3.057
164304.000			-30.573			-3.057
164405.000			-30.573			-3.057
164504.000			-30.572			-3.057
164604.000			-30.571			-3.057
164705.000			-30.570			-3.057
164803.000			-30.571			-3.057
164904.000			-30.570			-3.057
165005.000			-30.569			-3.057
165104.000			-30.568			-3.057
165204.000			-30.567			-3.057
165305.000			-30.566			-3.057
165404.000			-30.565			-3.057
165504.000			-30.565			-3.057
165605.000			-30.565			-3.057
165703.000			-30.565			-3.056
165804.000			-30.564			-3.056
165905.000			-30.564			-3.056
166004.000			-30.564			-3.056
166104.000			-30.563			-3.056
166205.000			-30.562			-3.056
166304.000			-30.562			-3.056
166404.000			-30.561			-3.056
166505.000			-30.560			-3.056
166603.000			-30.559			-3.056
166704.000			-30.559			-3.056
166805.000			-30.559			-3.056
166904.000			-30.558			-3.056
167004.000			-30.557			-3.056
167105.000			-30.556			-3.056
167204.000			-30.556			-3.056
167304.000			-30.556			-3.056
167405.000			-30.556			-3.056
167503.000			-30.556			-3.056
167605.000			-30.556			-3.056
167704.000			-30.553			-3.055
167804.000			-30.553			-3.055
167905.000			-30.553			-3.055
168004.000			-30.552			-3.055
168104.000			-30.552			-3.055
168205.000			-30.552			-3.055
168304.000			-30.552			-3.055
168403.000			-30.551			-3.055
168505.000			-30.548			-3.055
168604.000			-30.548			-3.055
168704.000			-30.548			-3.055
168805.000			-30.547			-3.055
168904.000			-30.548			-3.055
169004.000			-30.548			-3.055
169105.000			-30.547			-3.055
169204.000			-30.546			-3.055
169303.000			-30.545			-3.055
169405.000			-30.545			-3.054
169504.000			-30.544			-3.054
169604.000			-30.543			-3.054
169705.000			-30.543			-3.054
169804.000			-30.543			-3.054
169904.000			-30.541			-3.054
170005.000			-30.541			-3.054
170104.000			-30.541			-3.054
170203.000			-30.540			-3.054
170305.000			-30.539			-3.054
170404.000			-30.538			-3.054
170504.000			-30.538			-3.054
170605.000			-30.538			-3.054
170704.000			-30.538			-3.054
170805.000			-30.537			-3.054
170904.000			-30.535			-3.054
171004.000			-30.535			-3.054
171104.000			-30.535			-3.054
171204.000			-30.535			-3.053
171304.000			-30.535			-3.054
171405.000			-30.534			-3.053
171504.000			-30.533			-3.053
171604.000			-30.533			-3.053
171705.000			-30.532			-3.053
171804.000			-30.531			-3.053
171904.000			-30.532			-3.053
172004.000			-30.531			-3.053
172104.000			-30.529			-3.053
172204.000			-30.528			-3.053
172305.000			-30.528			-3.053
172404.000			-30.528			-3.053
172504.000			-30.528			-3.053
172605.000			-30.527			-3.053
172703.000			-30.527			-3.053
172804.000			-30.526			-3.053
172904.000			-30.526			-3.053
173004.000			-30.525			-3.053
173104.000			-30.524			-3.052
173205.000			-30.523			-3.052
173304.000			-30.522			-3.052
173404.000			-30.522			-3.052
173505.000			-30.523			-3.052
173603.000			-30.520			-3.052
173704.000			-30.520			-3.052
173805.000			-30.521			-3.052
173904.000			-30.521			-3.052
174005.000			-30.519			-3.052
174104.000			-30.518			-3.052
174204.000			-30.517			-3.052
174305.000			-30.517			-3.052
174404.000			-30.516			-3.052
174503.000			-30.515			-3.052
174605.000			-30.515			-3.052
174704.000			-30.515			-3.052
174804.000			-30.515			-3.052
174905.000			-30.515			-3.052
175004.000			-30.514			-3.051
175104.000			-30.513			-3.051
175204.000			-30.511			-3.051
175304.000			-30.511			-3.051
175403.000			-30.511			-3.051
175505.000			-30.511			-3.051
175604.000			-30.512			-3.051
175704.000			-30.510			-3.051
175805.000			-30.509			-3.051
175904.000			-30.510			-3.051
176004.000			-30.509			-3.051
176104.000			-30.508			-3.051
176204.000			-30.508			-3.051
176303.000			-30.507			-3.051
176405.000			-30.507			-3.051
176504.000			-30.506			-3.051
176604.000			-30.506			-3.051
176705.000			-30.505			-3.051
176804.000			-30.505			-3.050
176904.000			-30.504			-3.050
177003.000			-30.502			-3.050
177104.000			-30.503			-3.050
177205.000			-30.503			-3.050
177304.000			-30.501			-3.050
177404.000			-30.500			-3.050
177505.000			-30.500			-3.050
177604.000			-30.499			-3.050
177704.000			-30.500			-3.050
177805.000			-30.500			-3.050
177903.000			-30.498			-3.050
178004.000			-30.498			-3.050
178105.000			-30.498			-3.050
178204.000			-30.496			-3.050
178304.000			-30.496			-3.050
178405.000			-30.496			-3.050
178504.000			-30.495			-3.050
178604.000			-30.494			-3.049
178705.000			-30.493			-3.049
178803.000			-30.494			-3.049
178904.000			-30.494			-3.049
179004.000			-30.492			-3.049
179104.000			-30.492			-3.049
179204.000			-30.491			-3.049
179305.000			-30.491			-3.049
179404.000			-30.491			-3.049
179504.000			-30.489			-3.049
179605.000			-30.489			-3.049
179704.000			-30.489			-3.049
179804.000			-30.489			-3.049
179904.000			-30.488			-3.049
180004.000			-30.488			-3.049
180103.000			-30.487			-3.049
180205.000			-30.486			-3.049
180304.000			-30.486			-3.049
180405.000			-30.485			-3.049
180504.000			-30.484			-3.048
180604.000			-30.484			-3.048
180705.000			-30.485			-3.048
180803.000			-30.484			-3.048
180904.000			-30.483			-3.048
181004.000			-30.482			-3.048
181104.000			-30.482			-3.048
181204.000			-30.482			-3.048
181305.000			-30.482			-3.048
181404.000			-30.481			-3.048
181504.000			-30.480			-3.048
181605.000			-30.481			-3.048
181703.000			-30.479			-3.048
181804.000			-30.477			-3.048
181905.000			-30.477			-3.048
182004.000			-30.477			-3.048
182104.000			-30.476			-3.048
182205.000			-30.476			-3.048
182304.000			-30.476			-3.048
182404.000			-30.474			-3.047
182505.000			-30.474			-3.047
182603.000			-30.475			-3.047
182704.000			-30.474			-3.047
182805.000			-30.473			-3.047
182904.000			-30.473			-3.047
183004.000			-30.472			-3.047
183105.000			-30.471			-3.047
183204.000			-30.471			-3.047
183304.000			-30.471			-3.047
183405.000			-30.471			-3.047
183503.000			-30.470			-3.047
183605.000			-30.470			-3.047
183704.000			-30.469			-3.047
183804.000			-30.469			-3.047
183905.000			-30.467			-3.047
184004.000			-30.468			-3.047
184104.000			-30.467			-3.047
184205.000			-30.466			-3.047
184304.000			-30.464			-3.046
184403.000			-30.464			-3.046
184505.000			-30.464			-3.046
184604.000			-30.463			-3.046
184704.000			-30.463			-3.046
184805.000			-30.463			-3.046
184904.000			-30.463			-3.046
185004.000			-30.463			-3.046
185105.000			-30.462			-3.046
185204.000			-30.462			-3.046
185303.000			-30.460			-3.046
185405.000			-30.461			-3.046
185504.000			-30.460			-3.046
185604.000			-30.458			-3.046
185705.000			-30.458			-3.046
185804.000			-30.457			-3.046
185904.000			-30.457			-3.046
186005.000			-30.457			-3.046
186104.000			-30.456			-3.046
186203.000			-30.456			-3.046
186305.000			-30.454			-3.045
186404.000			-30.455			-3.046
186504.000			-30.455			-3.046
186605.000			-30.453			-3.045
186704.000			-30.452			-3.045
186805.000			-30.452			-3.045
186904.000			-30.452			-3.045
187004.000			-30.451			-3.045
187104.000			-30.451			-3.045
187204.000			-30.451			-3.045
187303.000			-30.451			-3.045
187405.000			-30.451			-3.045
187504.000			-30.450			-3.045
187604.000			-30.449			-3.045
187705.000			-30.448			-3.045
187804.000			-30.447			-3.045
187904.000			-30.446			-3.045
188004.000			-30.446			-3.045
188104.000			-30.445			-3.045
188203.000			-30.445			-3.044
188305.000			-30.445			-3.044
188404.000			-30.445			-3.045
188504.000			-30.444			-3.044
188605.000			-30.443			-3.044
188704.000			-30.441			-3.044
188804.000			-30.441			-3.044
188904.000			-30.442			-3.044
189004.000			-30.441			-3.044
189103.000			-30.441			-3.044
189205.000			-30.440			-3.044
189304.000			-30.439			-3.044
189404.000			-30.440			-3.044
189505.000			-30.440			-3.044
189604.000			-30.439			-3.044
189704.000			-30.438			-3.044
189804.000			-30.437			-3.044
189904.000			-30.437			-3.044
190003.000			-30.437			-3.044
190104.000			-30.437			-3.044
190204.000			-30.436			-3.044
190305.000			-30.436			-3.044
190404.000			-30.435			-3.043
190504.000			-30.435			-3.043
190605.000			-30.434			-3.043
190704.000			-30.433			-3.043
190804.000			-30.434			-3.043
190904.000			-30.434			-3.043
191004.000			-30.433			-3.043
191104.000			-30.432			-3.043
191205.000			-30.431			-3.043
191304.000			-30.430			-3.043
191404.000			-30.430			-3.043
191505.000			-30.430			-3.043
191603.000			-30.429			-3.043
191704.000			-30.429			-3.043
191804.000			-30.429			-3.043
191904.000			-30.427			-3.043
192004.000			-30.427			-3.043
192105.000			-30.427			-3.043
192204.000			-30.426			-3.043
192304.000			-30.425			-3.043
192405.000			-30.425			-3.042
192503.000			-30.424			-3.042
192604.000			-30.423			-3.042
192705.000			-30.423			-3.042
192804.000			-30.422			-3.042
192904.000			-30.422			-3.042
193004.000			-30.422			-3.042
193104.000			-30.422			-3.042
193205.000			-30.421			-3.042
193304.000			-30.420			-3.042
193403.000			-30.420			-3.042
193505.000			-30.419			-3.042
193604.000			-30.419			-3.042
193704.000			-30.418			-3.042
193805.000			-30.418			-3.042
193904.000			-30.417			-3.042
194004.000			-30.417			-3.042
194105.000			-30.416			-3.042
194204.000			-30.416			-3.042
194303.000			-30.416			-3.042
194405.000			-30.415			-3.042
194504.000			-30.415			-3.042
194604.000			-30.415			-3.041
194705.000			-30.414			-3.041
194804.000			-30.413			-3.041
194904.000			-30.413			-3.041
195005.000			-30.412			-3.041
195104.000			-30.411			-3.041
195203.000			-30.411			-3.041
195305.000			-30.411			-3.041
195404.000			-30.411			-3.041
195504.000			-30.409			-3.041
195605.000			-30.409			-3.041
195704.000			-30.409			-3.041
195804.000			-30.408			-3.041
195904.000			-30.407			-3.041
196004.000			-30.408			-3.041
196103.000			-30.407			-3.041
196205.000			-30.406			-3.041
196304.000			-30.407			-3.041
196405.000			-30.407			-3.041
196504.000			-30.405			-3.041
196604.000			-30.404			-3.040
196705.000			-30.404			-3.040
196804.000			-30.403			-3.040
196904.000			-30.403			-3.040
197004.000			-30.402			-3.040
197104.000			-30.401			-3.040
197204.000			-30.401			-3.040
197305.000			-30.402			-3.040
197404.000			-30.401			-3.040
197504.000			-30.400			-3.040
197605.000			-30.401			-3.040
197703.000			-30.398			-3.040
197804.000			-30.397			-3.040
197904.000			-30.397			-3.040
198004.000			-30.397			-3.040
198104.000			-30.398			-3.040
198205.000			-30.398			-3.040
198304.000			-30.397			-3.040
198404.000			-30.395			-3.040
198505.000			-30.396			-3.040
198604.000			-30.395			-3.040
198704.000			-30.395			-3.040
198804.000			-30.394			-3.039
198904.000			-30.394			-3.039
199004.000			-30.393			-3.039
199105.000			-30.392			-3.039
199204.000			-30.392			-3.039
199304.000			-30.391			-3.039
199405.000			-30.391			-3.039
199504.000			-30.390			-3.039
199605.000			-30.390			-3.039
199703.000			-30.390			-3.039
199804.000			-30.390			-3.039
199904.000			-30.389			-3.039
200004.000			-30.389			-3.039
200104.000			-30.388			-3.039
200205.000			-30.386			-3.039
200304.000			-30.386			-3.039
200404.000			-30.386			-3.039
200505.000			-30.386			-3.039
200603.000			-30.385			-3.039
200704.000			-30.385			-3.038
200804.000			-30.384			-3.038
200904.000			-30.384			-3.038
201004.000			-30.382			-3.038
201105.000			-30.382			-3.038
201204.000			-30.383			-3.038
201304.000			-30.382			-3.038
201405.000			-30.382			-3.038
201503.000			-30.381			-3.038
201604.000			-30.381			-3.038
201705.000			-30.380			-3.038
201804.000			-30.380			-3.038
201904.000			-30.379			-3.038
202005.000			-30.379			-3.038
202104.000			-30.377			-3.038
202204.000			-30.377			-3.038
202305.000			-30.377			-3.038
202403.000			-30.377			-3.038
202504.000			-30.377			-3.038
202605.000			-30.376			-3.038
202704.000			-30.375			-3.037
202805.000			-30.375			-3.038
202904.000			-30.375			-3.037
203004.000			-30.374			-3.037
203104.000			-30.374			-3.037
203204.000			-30.373			-3.037
203303.000			-30.373			-3.037
203405.000			-30.373			-3.037
203504.000			-30.371			-3.037
203604.000			-30.371			-3.037
203705.000			-30.370			-3.037
203804.000			-30.370			-3.037
203904.000			-30.370			-3.037
204004.000			-30.369			-3.037
204104.000			-30.369			-3.037
204204.000			-30.368			-3.037
204305.000			-30.367			-3.037
204404.000			-30.366			-3.037
204504.000			-30.367			-3.037
204605.000			-30.368			-3.037
204704.000			-30.367			-3.037
204804.000			-30.366			-3.037
204904.000			-30.366			-3.037
205004.000			-30.365			-3.036
205104.000			-30.364			-3.036
205205.000			-30.364			-3.036
205304.000			-30.363			-3.036
205404.000			-30.362			-3.036
205505.000			-30.362			-3.036
205603.000			-30.362			-3.036
205704.000			-30.362			-3.036
205803.000			-30.361			-3.036
205904.000			-30.361			-3.036
206005.000			-30.360			-3.036
206104.000			-30.360			-3.036
206204.000			-30.360			-3.036
206305.000			-30.359			-3.036
206404.000			-30.359			-3.036
206503.000			-30.358			-3.036
206605.000			-30.357			-3.036
206704.000			-30.357			-3.036
206804.000			-30.357			-3.036
206905.000			-30.356			-3.036
207004.000			-30.355			-3.036
207104.000			-30.356			-3.036
207205.000			-30.356			-3.036
207304.000			-30.354			-3.035
207403.000			-30.354			-3.035
207505.000			-30.354			-3.035
207604.000			-30.352			-3.035
207704.000			-30.352			-3.035
207805.000			-30.352			-3.035
207904.000			-30.352			-3.035
208004.000			-30.351			-3.035
208104.000			-30.350			-3.035
208204.000			-30.351			-3.035
208303.000			-30.350			-3.035
208405.000			-30.350			-3.035
208504.000			-30.350			-3.035
208604.000			-30.349			-3.035
208705.000			-30.348			-3.035
208804.000			-30.347			-3.035
208904.000			-30.347			-3.035
209004.000			-30.347			-3.035
209104.000			-30.347			-3.035
209203.000			-30.346			-3.035
209304.000			-30.346			-3.035
209404.000			-30.345			-3.035
209505.000			-30.345			-3.034
209604.000			-30.344			-3.034
209704.000			-30.343			-3.034
209805.000			-30.343			-3.034
209903.000			-30.343			-3.034
210004.000			-30.342			-3.034
210105.000			-30.342			-3.034
210204.000			-30.341			-3.034
210304.000			-30.340			-3.034
210405.000			-30.340			-3.034
210504.000			-30.339			-3.034
210604.000			-30.339			-3.034
210705.000			-30.339			-3.034
210803.000			-30.339			-3.034
210904.000			-30.337			-3.034
211005.000			-30.337			-3.034
211104.000			-30.337			-3.034
211204.000			-30.337			-3.034
211305.000			-30.336			-3.034
211404.000			-30.337			-3.034
211503.000			-30.337			-3.034
211605.000			-30.336			-3.034
211704.000			-30.336			-3.034
211804.000			-30.335			-3.034
211905.000			-30.334			-3.033
212004.000			-30.333			-3.033
212104.000			-30.333			-3.033
212204.000			-30.333			-3.033
212304.000			-30.333			-3.033
212403.000			-30.332			-3.033
212504.000			-30.332			-3.033
212604.000			-30.332			-3.033
212705.000			-30.330			-3.033
212804.000			-30.328			-3.033
212904.000			-30.329			-3.033
213005.000			-30.330			-3.033
213103.000			-30.328			-3.033
213204.000			-30.327			-3.033
213305.000			-30.327			-3.033
213404.000			-30.328			-3.033
213504.000			-30.327			-3.033
213605.000			-30.326			-3.033
213704.000			-30.326			-3.033
213803.000			-30.325			-3.032
213905.000			-30.325			-3.032
214003.000			-30.325			-3.033
214104.000			-30.324			-3.032
214205.000			-30.324			-3.032
214304.000			-30.323			-3.032
214404.000			-30.323			-3.032
214505.000			-30.322			-3.032
214604.000			-30.322			-3.032
214703.000			-30.321			-3.032
214805.000			-30.320			-3.032
214904.000			-30.320			-3.032
215004.000			-30.320			-3.032
215105.000			-30.320			-3.032
215204.000			-30.320			-3.032
215304.000			-30.317			-3.032
215403.000			-30.317			-3.032
215504.000			-30.318			-3.032
215603.000			-30.317			-3.032
215704.000			-30.316			-3.032
215804.000			-30.316			-3.032
215905.000			-30.316			-3.032
216004.000			-30.316			-3.032
216104.000			-30.316			-3.032
216205.000			-30.314			-3.031
216303.000			-30.315			-3.032
216404.000			-30.315			-3.032
216505.000			-30.314			-3.031
216604.000			-30.314			-3.031
216704.000			-30.313			-3.031
216805.000			-30.313			-3.031
216904.000			-30.312			-3.031
217004.000			-30.311			-3.031
217105.000			-30.311			-3.031
217203.000			-30.311			-3.031
217304.000			-30.311			-3.031
217405.000			-30.311			-3.031
217504.000			-30.309			-3.031
217604.000			-30.309			-3.031
217705.000			-30.308			-3.031
217804.000			-30.308			-3.031
217903.000			-30.309			-3.031
218005.000			-30.307			-3.031
218104.000			-30.306			-3.031
218204.000			-30.306			-3.031
218305.000			-30.305			-3.031
218404.000			-30.305			-3.031
218504.000			-30.305			-3.031
218604.000			-30.305			-3.030
218704.000			-30.305			-3.030
218803.000			-30.304			-3.030
218904.000			-30.303			-3.030
219004.000			-30.303			-3.030
219105.000			-30.302			-3.030
219204.000			-30.302			-3.030
219304.000			-30.301			-3.030
219405.000			-30.301			-3.030
219503.000			-30.302			-3.030
219604.000			-30.301			-3.030
219704.000			-30.300			-3.030
219804.000			-30.300			-3.030
219904.000			-30.300			-3.030
220005.000			-30.299			-3.030
220104.000			-30.298			-3.030
220204.000			-30.298			-3.030
220305.000			-30.298			-3.030
220403.000			-30.298			-3.030
220504.000			-30.298			-3.030
220604.000			-30.297			-3.030
220704.000			-30.297			-3.030
220804.000			-30.296			-3.030
220905.000			-30.294			-3.029
221004.000			-30.294			-3.029
221104.000			-30.295			-3.029
221205.000			-30.294			-3.029
221303.000			-30.293			-3.029
221404.000			-30.292			-3.029
221505.000			-30.292			-3.029
221604.000			-30.292			-3.029
221704.000			-30.291			-3.029
221804.000			-30.291			-3.029
221904.000			-30.291			-3.029
222005.000			-30.290			-3.029
222104.000			-30.289			-3.029
222203.000			-30.289			-3.029
222305.000			-30.289			-3.029
222404.000			-30.288			-3.029
222504.000			-30.288			-3.029
222605.000			-30.287			-3.029
222704.000			-30.286			-3.029
222804.000			-30.287			-3.029
222904.000			-30.286			-3.029
223004.000			-30.285			-3.029
223103.000			-30.286			-3.029
223205.000			-30.285			-3.029
223304.000			-30.285			-3.028
223404.000			-30.283			-3.028
223505.000			-30.284			-3.028
223604.000			-30.284			-3.028
223704.000			-30.283			-3.028
223804.000			-30.282			-3.028
223904.000			-30.282			-3.028
224003.000			-30.282			-3.028
224105.000			-30.280			-3.028
224204.000			-30.280			-3.028
224304.000			-30.280			-3.028
224405.000			-30.279			-3.028
224504.000			-30.280			-3.028
224604.000			-30.280			-3.028
224704.000			-30.278			-3.028
224804.000			-30.278			-3.028
224904.000			-30.277			-3.028
225004.000			-30.277			-3.028
225104.000			-30.277			-3.028
225205.000			-30.277			-3.028
225304.000			-30.276			-3.028
225404.000			-30.276			-3.028
225505.000			-30.276			-3.028
225603.000			-30.274			-3.027
225704.000			-30.273			-3.027
225805.000			-30.273			-3.027
225904.000			-30.275			-3.027
226004.000			-30.273			-3.027
226105.000			-30.273			-3.027
226204.000			-30.273			-3.027
226304.000			-30.272			-3.027
226405.000			-30.271			-3.027
226503.000			-30.271			-3.027
226604.000			-30.271			-3.027
226705.000			-30.271			-3.027
226804.000			-30.270			-3.027
226904.000			-30.270			-3.027
227005.000			-30.269			-3.027
227104.000			-30.268			-3.027
227203.000			-30.269			-3.027
227305.000			-30.269			-3.027
227403.000			-30.268			-3.027
227504.000			-30.267			-3.027
227605.000			-30.266			-3.027
227704.000			-30.266			-3.027
227804.000			-30.266			-3.027
227905.000			-30.265			-3.027
228004.000			-30.265			-3.027
228104.000			-30.265			-3.026
228205.000			-30.264			-3.026
228303.000			-30.264			-3.026
228405.000			-30.264			-3.026
228504.000			-30.261			-3.026
228604.000			-30.262			-3.026
228705.000			-30.263			-3.026
228804.000			-30.262			-3.026
228904.000			-30.261			-3.026
229005.000			-30.261			-3.026
229104.000			-30.260			-3.026
229203.000			-30.259			-3.026
229305.000			-30.258			-3.026
229404.000			-30.259			-3.026
229504.000			-30.259			-3.026
229605.000			-30.259			-3.026
229704.000			-30.259			-3.026
229804.000			-30.258			-3.026
229905.000			-30.256			-3.026
230004.000			-30.256			-3.026
230103.000			-30.256			-3.026
230205.000			-30.256			-3.026
230304.000			-30.255			-3.026
230404.000			-30.255			-3.025
230505.000			-30.255			-3.026
230604.000			-30.256			-3.026
230704.000			-30.254			-3.025
230805.000			-30.252			-3.025
230904.000			-30.252			-3.025
231003.000			-30.252			-3.025
231105.000			-30.251			-3.025
231204.000			-30.251			-3.025
231304.000			-30.252			-3.025
231405.000			-30.251			-3.025
231504.000			-30.251			-3.025
231605.000			-30.250			-3.025
231703.000			-30.249			-3.025
231804.000			-30.249			-3.025
231905.000			-30.250			-3.025
232004.000			-30.249			-3.025
232104.000			-30.248			-3.025
232205.000			-30.246			-3.025
232304.000			-30.247			-3.025
232404.000			-30.248			-3.025
232505.000			-30.247			-3.025
232603.000			-30.247			-3.025
232704.000			-30.247			-3.025
232805.000			-30.247			-3.025
232904.000			-30.245			-3.024
233004.000			-30.244			-3.024
233105.000			-30.244			-3.024
233204.000			-30.244			-3.024
233303.000			-30.244			-3.024
233405.000			-30.244			-3.024
233503.000			-30.242			-3.024
233604.000			-30.242			-3.024
233705.000			-30.241			-3.024
233804.000			-30.241			-3.024
233904.000			-30.241			-3.024
234005.000			-30.241			-3.024
234104.000			-30.240			-3.024
234203.000			-30.240			-3.024
234305.000			-30.239			-3.024
234404.000			-30.239			-3.024
234504.000			-30.238			-3.024
234605.000			-30.238			-3.024
234704.000			-30.237			-3.024
234805.000			-30.236			-3.024
234904.000			-30.236			-3.024
235004.000			-30.236			-3.024
235104.000			-30.236			-3.024
235204.000			-30.235			-3.024
235304.000			-30.235			-3.024
235405.000			-30.235			-3.023
235504.000			-30.236			-3.024
235604.000			-30.235			-3.023
235705.000			-30.234			-3.023
235804.000			-30.233			-3.023
235904.000			-30.233			-3.023
236004.000			-30.232			-3.023
236104.000			-30.232			-3.023
236204.000			-30.232			-3.023
236305.000			-30.231			-3.023
236404.000			-30.231			-3.023
236504.000			-30.231			-3.023
236605.000			-30.230			-3.023
236703.000			-30.230			-3.023
236804.000			-30.230			-3.023
236905.000			-30.229			-3.023
237004.000			-30.227			-3.023
237104.000			-30.227			-3.023
237205.000			-30.228			-3.023
237304.000			-30.227			-3.023
237404.000			-30.227			-3.023
237505.000			-30.227			-3.023
237603.000			-30.226			-3.023
237704.000			-30.225			-3.022
237805.000			-30.225			-3.022
237904.000			-30.224			-3.022
238005.000			-30.224			-3.022
238104.000			-30.223			-3.022
238204.000			-30.223			-3.022
238305.000			-30.223			-3.022
238404.000			-30.222			-3.022
238503.000			-30.222			-3.022
238605.000			-30.222			-3.022
238704.000			-30.221			-3.022
238804.000			-30.221			-3.022
238905.000			-30.221			-3.022
239004.000			-30.221			-3.022
239104.000			-30.219			-3.022
239204.000			-30.219			-3.022
239304.000			-30.219			-3.022
239403.000			-30.219			-3.022
239505.000			-30.218			-3.022
239604.000			-30.217			-3.022
239704.000			-30.218			-3.022
239805.000			-30.219			-3.022
239904.000			-30.218			-3.022
240004.000			-30.217			-3.022
240104.000			-30.215			-3.022
240204.000			-30.216			-3.022
240304.000			-30.215			-3.021
240405.000			-30.215			-3.022
240504.000			-30.216			-3.022
240604.000			-30.215			-3.022
240705.000			-30.214			-3.021
240804.000			-30.213			-3.021
240904.000			-30.212			-3.021
241003.000			-30.212			-3.021
241104.000			-30.213			-3.021
241205.000			-30.211			-3.021
241304.000			-30.211			-3.021
241404.000			-30.212			-3.021
241505.000			-30.212			-3.021
241604.000			-30.211			-3.021
241703.000			-30.210			-3.021
241805.000			-30.209			-3.021
241904.000			-30.208			-3.021
242004.000			-30.208			-3.021
242105.000			-30.209			-3.021
242204.000			-30.207			-3.021
242304.000			-30.208			-3.021
242404.000			-30.206			-3.021
242504.000			-30.207			-3.021
242603.000			-30.206			-3.021
242705.000			-30.206			-3.021
242804.000			-30.205			-3.021
242904.000			-30.204			-3.020
243005.000			-30.204			-3.020
243104.000			-30.203			-3.020
243204.000			-30.204			-3.020
243304.000			-30.203			-3.020
243404.000			-30.203			-3.020
243504.000			-30.203			-3.020
243605.000			-30.203			-3.020
243704.000			-30.202			-3.020
243804.000			-30.202			-3.020
243905.000			-30.202			-3.020
244003.000			-30.201			-3.020
244104.000			-30.200			-3.020
244203.000			-30.200			-3.020
244304.000			-30.200			-3.020
244405.000			-30.199			-3.020
244504.000			-30.199			-3.020
244604.000			-30.198			-3.020
244705.000			-30.198			-3.020
244804.000			-30.198			-3.020
244903.000			-30.198			-3.020
245005.000			-30.197			-3.020
245103.000			-30.197			-3.020
245204.000			-30.196			-3.020
245305.000			-30.196			-3.020
245404.000			-30.196			-3.020
245504.000			-30.195			-3.020
245605.000			-30.194			-3.019
245704.000			-30.194			-3.019
245803.000			-30.193			-3.019
245905.000			-30.193			-3.019
246003.000			-30.195			-3.019
246104.000			-30.194			-3.019
246205.000			-30.192			-3.019
246304.000			-30.191			-3.019
246404.000			-30.191			-3.019
246505.000			-30.191			-3.019
246604.000			-30.192			-3.019
246703.000			-30.191			-3.019
246805.000			-30.190			-3.019
246903.000			-30.189			-3.019
247004.000			-30.189			-3.019
247105.000			-30.189			-3.019
247204.000			-30.189			-3.019
247304.000			-30.188			-3.019
247404.000			-30.188			-3.019
247504.000			-30.187			-3.019
247603.000			-30.187			-3.019
247704.000			-30.186			-3.019
247803.000			-30.186			-3.019
247905.000			-30.185			-3.019
248004.000			-30.184			-3.018
248104.000			-30.184			-3.018
248205.000			-30.185			-3.018
248304.000			-30.184			-3.018
248404.000			-30.184			-3.018
248504.000			-30.184			-3.018
248604.000			-30.183			-3.018
248703.000			-30.184			-3.018
248805.000			-30.183			-3.018
248904.000			-30.182			-3.018
249004.000			-30.182			-3.018
249105.000			-30.181			-3.018
249204.000			-30.181			-3.018
249304.000			-30.181			-3.018
249404.000			-30.180			-3.018
249504.000			-30.180			-3.018
249603.000			-30.180			-3.018
249705.000			-30.179			-3.018
249804.000			-30.179			-3.018
249904.000			-30.178			-3.018
250005.000			-30.178			-3.018
250104.000			-30.178			-3.018
250204.000			-30.178			-3.018
250304.000			-30.178			-3.018
250404.000			-30.176			-3.018
250504.000			-30.176			-3.018
250604.000			-30.176			-3.018
250704.000			-30.175			-3.018
250805.000			-30.175			-3.018
250904.000			-30.175			-3.017
251004.000			-30.174			-3.017
251105.000			-30.173			-3.017
251203.000			-30.172			-3.017
251304.000			-30.173			-3.017
251405.000			-30.173			-3.017
251504.000			-30.172			-3.017
251604.000			-30.172			-3.017
251705.000			-30.172			-3.017
251804.000			-30.171			-3.017
251903.000			-30.171			-3.017
252005.000			-30.171			-3.017
252104.000			-30.170			-3.017
252204.000			-30.169			-3.017
252305.000			-30.169			-3.017
252404.000			-30.169			-3.017
252504.000			-30.169			-3.017
252605.000			-30.168			-3.017
252704.000			-30.167			-3.017
252803.000			-30.167			-3.017
252905.000			-30.167			-3.017
253004.000			-30.167			-3.017
253104.000			-30.166			-3.017
253205.000			-30.165			-3.017
253304.000			-30.166			-3.017
253404.000			-30.165			-3.016
253505.000			-30.164			-3.016
253604.000			-30.164			-3.016
253703.000			-30.164			-3.016
253805.000			-30.163			-3.016
253904.000			-30.163			-3.016
254005.000			-30.163			-3.016
254104.000			-30.162			-3.016
254204.000			-30.161			-3.016
254305.000			-30.161			-3.016
254404.000			-30.161			-3.016
254504.000			-30.160			-3.016
254604.000			-30.160			-3.016
254704.000			-30.159			-3.016
254804.000			-30.160			-3.016
254905.000			-30.160			-3.016
255004.000			-30.159			-3.016
255104.000			-30.159			-3.016
255205.000			-30.157			-3.016
255303.000			-30.157			-3.016
255404.000			-30.158			-3.016
255504.000			-30.157			-3.016
255604.000			-30.157			-3.016
255704.000			-30.156			-3.016
255805.000			-30.155			-3.016
255904.000			-30.155			-3.015
256004.000			-30.155			-3.015
256105.000			-30.154			-3.015
256203.000			-30.154			-3.015
256304.000			-30.155			-3.015
256405.000			-30.154			-3.015
256504.000			-30.154			-3.015
256604.000			-30.153			-3.015
256705.000			-30.153			-3.015
256804.000			-30.152			-3.015
256904.000			-30.152			-3.015
257005.000			-30.151			-3.015
257103.000			-30.150			-3.015
257205.000			-30.151			-3.015
257304.000			-30.151			-3.015
257404.000			-30.150			-3.015
257505.000			-30.149			-3.015
257604.000			-30.149			-3.015
257704.000			-30.148			-3.015
257805.000			-30.148			-3.015
257904.000			-30.149			-3.015
258003.000			-30.148			-3.015
258105.000			-30.147			-3.015
258204.000			-30.147			-3.015
258304.000			-30.147			-3.015
258405.000			-30.147			-3.015
258504.000			-30.145			-3.014
258604.000			-30.145			-3.014
258705.000			-30.144			-3.014
258804.000			-30.144			-3.014
258903.000			-30.144			-3.014
259005.000			-30.145			-3.014
259104.000			-30.145			-3.015
259204.000			-30.144			-3.014
259305.000			-30.144			-3.014
259404.000			-30.143			-3.014
259504.000			-30.142			-3.014
259605.000			-30.142			-3.014
259704.000			-30.141			-3.014
259803.000			-30.142			-3.014
259905.000			-30.141			-3.014
260004.000			-30.141			-3.014
260104.000			-30.141			-3.014
260205.000			-30.140			-3.014
260304.000			-30.140			-3.014
260405.000			-30.140			-3.014
260504.000			-30.139			-3.014
260604.000			-30.139			-3.014
260704.000			-30.137			-3.014
260804.000			-30.137			-3.014
260904.000			-30.137			-3.014
261005.000			-30.137			-3.014
261104.000			-30.136			-3.014
261204.000			-30.137			-3.014
261305.000			-30.136			-3.014
261403.000			-30.135			-3.014
261504.000			-30.135			-3.013
261604.000			-30.135			-3.014
261704.000			-30.135			-3.013
261804.000			-30.133			-3.013
261905.000			-30.134			-3.013
262004.000			-30.134			-3.013
262104.000			-30.134			-3.013
262205.000			-30.133			-3.013
262303.000			-30.133			-3.013
262404.000			-30.132			-3.013
262505.000			-30.132			-3.013
262604.000			-30.132			-3.013
262704.000			-30.131			-3.013
262805.000			-30.130			-3.013
262904.000			-30.129			-3.013
263003.000			-30.129			-3.013
263105.000			-30.130			-3.013
263203.000			-30.129			-3.013
263304.000			-30.129			-3.013
263405.000			-30.129			-3.013
263504.000			-30.129			-3.013
263605.000			-30.127			-3.013
263704.000			-30.126			-3.013
263804.000			-30.126			-3.013
263904.000			-30.126			-3.013
264004.000			-30.126			-3.013
264103.000			-30.127			-3.013
264205.000			-30.126			-3.013
264304.000			-30.126			-3.013
264404.000			-30.126			-3.013
264505.000			-30.126			-3.013
264604.000			-30.126			-3.013
264704.000			-30.124			-3.012
264804.000			-30.123			-3.012
264904.000			-30.122			-3.012
265004.000			-30.121			-3.012
265105.000			-30.122			-3.012
265204.000			-30.123			-3.012
265304.000			-30.122			-3.012
265405.000			-30.122			-3.012
265504.000			-30.122			-3.012
265604.000			-30.121			-3.012
265704.000			-30.120			-3.012
265804.000			-30.120			-3.012
265904.000			-30.120			-3.012
266005.000			-30.119			-3.012
266104.000			-30.119			-3.012
266204.000			-30.118			-3.012
266305.000			-30.118			-3.012
266403.000			-30.117			-3.012
266504.000			-30.118			-3.012
266605.000			-30.118			-3.012
266704.000			-30.116			-3.012
266805.000			-30.116			-3.012
266904.000			-30.116			-3.012
267004.000			-30.115			-3.011
267105.000			-30.114			-3.011
267204.000			-30.115			-3.011
267303.000			-30.114			-3.011
267405.000			-30.113			-3.011
267504.000			-30.113			-3.011
267604.000			-30.112			-3.011
267705.000			-30.112			-3.011
267804.000			-30.113			-3.011
267904.000			-30.113			-3.011
268004.000			-30.112			-3.011
268104.000			-30.112			-3.011
268203.000			-30.111			-3.011
268305.000			-30.111			-3.011
268404.000			-30.110			-3.011
268504.000			-30.110			-3.011
268605.000			-30.110			-3.011
268704.000			-30.110			-3.011
268804.000			-30.110			-3.011
268904.000			-30.109			-3.011
269004.000			-30.108			-3.011
269104.000			-30.107			-3.011
269205.000			-30.107			-3.011
269304.000			-30.108			-3.011
269404.000			-30.106			-3.011
269505.000			-30.106			-3.011
269604.000			-30.105			-3.011
269704.000			-30.106			-3.011
269803.000			-30.106			-3.011
269904.000			-30.106			-3.011
270005.000			-30.105			-3.011
270104.000			-30.105			-3.010
270204.000			-30.104			-3.010
270305.000			-30.104			-3.010
270404.000			-30.104			-3.010
270503.000			-30.103			-3.010
270605.000			-30.103			-3.010
270704.000			-30.102			-3.010
270804.000			-30.102			-3.010
270905.000			-30.102			-3.010
271004.000			-30.102			-3.010
271104.000			-30.101			-3.010
271204.000			-30.101			-3.010
271304.000			-30.101			-3.010
271403.000			-30.100			-3.010
271505.000			-30.100			-3.010
271604.000			-30.099			-3.010
271704.000			-30.100			-3.010
271805.000			-30.100			-3.010
271904.000			-30.099			-3.010
272004.000			-30.098			-3.010
272104.000			-30.097			-3.010
272204.000			-30.097			-3.010
272304.000			-30.098			-3.010
272405.000			-30.096			-3.010
272504.000			-30.096			-3.010
272604.000			-30.095			-3.010
272705.000			-30.096			-3.010
272804.000			-30.097			-3.010
272904.000			-30.096			-3.010
273003.000			-30.094			-3.009
273104.000			-30.093			-3.009
273205.000			-30.093			-3.009
273304.000			-30.093			-3.009
273404.000			-30.094			-3.009
273505.000			-30.093			-3.009
273604.000			-30.092			-3.009
273703.000			-30.092			-3.009
273805.000			-30.091			-3.009
273903.000			-30.091			-3.009
274004.000			-30.091			-3.009
274105.000			-30.091			-3.009
274204.000			-30.091			-3.009
274304.000			-30.090			-3.009
274405.000			-30.090			-3.009
274504.000			-30.091			-3.009
274603.000			-30.088			-3.009
274705.000			-30.088			-3.009
274804.000			-30.088			-3.009
274904.000			-30.087			-3.009
275005.000			-30.087			-3.009
275104.000			-30.087			-3.009
275204.000			-30.087			-3.009
275305.000			-30.087			-3.009
275404.000			-30.086			-3.009
275503.000			-30.086			-3.009
275605.000			-30.085			-3.009
275703.000			-30.084			-3.008
275804.000			-30.084			-3.008
275905.000			-30.084			-3.008
276004.000			-30.083			-3.008
276104.000			-30.084			-3.008
276204.000			-30.083			-3.008
276304.000			-30.084			-3.008
276403.000			-30.083			-3.008
276504.000			-30.082			-3.008
276603.000			-30.082			-3.008
276705.000			-30.081			-3.008
276804.000			-30.081			-3.008
276904.000			-30.080			-3.008
277005.000			-30.079			-3.008
277104.000			-30.080			-3.008
277204.000			-30.080			-3.008
277304.000			-30.079			-3.008
277404.000			-30.078			-3.008
277503.000			-30.079			-3.008
277605.000			-30.078			-3.008
277704.000			-30.077			-3.008
277804.000			-30.077			-3.008
277905.000			-30.077			-3.008
278004.000			-30.077			-3.008
278104.000			-30.077			-3.008
278204.000			-30.077			-3.008
278304.000			-30.077			-3.008
278403.000			-30.076			-3.008
278505.000			-30.074			-3.007
278604.000			-30.074			-3.007
278704.000			-30.074			-3.007
278805.000			-30.073			-3.007
278904.000			-30.073			-3.007
279004.000			-30.074			-3.007
279104.000			-30.074			-3.007
279204.000			-30.074			-3.007
279303.000			-30.073			-3.007
279405.000			-30.072			-3.007
279504.000			-30.071			-3.007
279605.000			-30.070			-3.007
279704.000			-30.071			-3.007
279804.000			-30.071			-3.007
279905.000			-30.070			-3.007
280003.000			-30.070			-3.007
280104.000			-30.070			-3.007
280204.000			-30.069			-3.007
280304.000			-30.069			-3.007
280404.000			-30.068			-3.007
280505.000			-30.068			-3.007
280604.000			-30.069			-3.007
280704.000			-30.067			-3.007
280805.000			-30.067			-3.007
280903.000			-30.068			-3.007
281004.000			-30.067			-3.007
281105.000			-30.066			-3.007
281204.000			-30.065			-3.007
281304.000			-30.066			-3.007
281405.000			-30.066			-3.007
281504.000			-30.065			-3.006
281604.000			-30.066			-3.007
281705.000			-30.064			-3.006
281803.000			-30.064			-3.006
281904.000			-30.064			-3.006
282005.000			-30.064			-3.006
282104.000			-30.064			-3.006
282204.000			-30.064			-3.006
282305.000			-30.063			-3.006
282404.000			-30.063			-3.006
282503.000			-30.062			-3.006
282605.000			-30.061			-3.006
282703.000			-30.061			-3.006
282805.000			-30.061			-3.006
282904.000			-30.061			-3.006
283004.000			-30.059			-3.006
283105.000			-30.059			-3.006
283204.000			-30.059			-3.006
283304.000			-30.059			-3.006
283404.000			-30.059			-3.006
283504.000			-30.058			-3.006
283603.000			-30.058			-3.006
283705.000			-30.057			-3.006
283804.000			-30.057			-3.006
283904.000			-30.057			-3.006
284005.000			-30.057			-3.006
284104.000			-30.056			-3.006
284204.000			-30.056			-3.006
284304.000			-30.056			-3.006
284404.000			-30.056			-3.006
284504.000			-30.055			-3.005
284605.000			-30.055			-3.006
284704.000			-30.056			-3.006
284804.000			-30.053			-3.005
284905.000			-30.054			-3.005
285004.000			-30.054			-3.005
285104.000			-30.054			-3.005
285204.000			-30.054			-3.005
285304.000			-30.053			-3.005
285404.000			-30.052			-3.005
285505.000			-30.053			-3.005
285604.000			-30.052			-3.005
285704.000			-30.051			-3.005
285805.000			-30.051			-3.005
285904.000			-30.051			-3.005
286005.000			-30.050			-3.005
286103.000			-30.051			-3.005
286204.000			-30.050			-3.005
286305.000			-30.048			-3.005
286404.000			-30.048			-3.005
286504.000			-30.049			-3.005
286605.000			-30.047			-3.005
286704.000			-30.047			-3.005
286804.000			-30.047			-3.005
286905.000			-30.047			-3.005
287003.000			-30.046			-3.005
287104.000			-30.047			-3.005
287205.000			-30.048			-3.005
287304.000			-30.048			-3.005
287404.000			-30.045			-3.005
287505.000			-30.045			-3.004
287604.000			-30.044			-3.004
287703.000			-30.044			-3.004
287805.000			-30.044			-3.004
287903.000			-30.044			-3.004
288004.000			-30.044			-3.004
288105.000			-30.043			-3.004
288204.000			-30.044			-3.004
288304.000			-30.044			-3.004
288405.000			-30.042			-3.004
288504.000			-30.043			-3.004
288603.000			-30.042			-3.004
288705.000			-30.042			-3.004
288804.000			-30.041			-3.004
288904.000			-30.041			-3.004
289005.000			-30.040			-3.004
289104.000			-30.040			-3.004
289205.000			-30.039			-3.004
289304.000			-30.039			-3.004
289404.000			-30.040			-3.004
289504.000			-30.039			-3.004
289604.000			-30.038			-3.004
289703.000			-30.039			-3.004
289805.000			-30.039			-3.004
289904.000			-30.039			-3.004
290004.000			-30.037			-3.004
290105.000			-30.036			-3.004
290204.000			-30.037			-3.004
290304.000			-30.037			-3.004
290404.000			-30.036			-3.004
290504.000			-30.035			-3.004
290604.000			-30.036			-3.004
290705.000			-30.036			-3.004
290804.000			-30.035			-3.003
290904.000			-30.035			-3.003
291005.000			-30.035			-3.004
291104.000			-30.034			-3.003
291204.000			-30.034			-3.003
291304.000			-30.032			-3.003
291404.000			-30.032			-3.003
291504.000			-30.032			-3.003
291605.000			-30.033			-3.003
291704.000			-30.032			-3.003
291804.000			-30.032			-3.003
291905.000			-30.031			-3.003
292003.000			-30.030			-3.003
292104.000			-30.030			-3.003
292205.000			-30.030			-3.003
292304.000			-30.029			-3.003
292405.000			-30.030			-3.003
292504.000			-30.029			-3.003
292604.000			-30.029			-3.003
292705.000			-30.029			-3.003
292804.000			-30.029			-3.003
292903.000			-30.028			-3.003
293005.000			-30.028			-3.003
293104.000			-30.028			-3.003
293204.000			-30.026			-3.003
293305.000			-30.027			-3.003
293404.000			-30.026			-3.003
293504.000			-30.026			-3.003
293605.000			-30.026			-3.003
293704.000			-30.025			-3.002
293803.000			-30.024			-3.002
293905.000			-30.025			-3.002
294004.000			-30.025			-3.003
294104.000			-30.025			-3.002
294205.000			-30.024			-3.002
294304.000			-30.022			-3.002
294404.000			-30.021			-3.002
294504.000			-30.022			-3.002
294604.000			-30.022			-3.002
294703.000			-30.022			-3.002
294805.000			-30.022			-3.002
294904.000			-30.022			-3.002
295004.000			-30.022			-3.002
295105.000			-30.022			-3.002
295204.000			-30.021			-3.002
295304.000			-30.020			-3.002
295403.000			-30.020			-3.002
295504.000			-30.020			-3.002
295605.000			-30.020			-3.002
295704.000			-30.019			-3.002
295804.000			-30.018			-3.002
295905.000			-30.018			-3.002
296004.000			-30.018			-3.002
296104.000			-30.017			-3.002
296205.000			-30.016			-3.002
296303.000			-30.017			-3.002
296404.000			-30.017			-3.002
296505.000			-30.016			-3.002
296604.000			-30.016			-3.002
296704.000			-30.015			-3.002
296805.000			-30.015			-3.001
296904.000			-30.015			-3.002
297004.000			-30.015			-3.002
297105.000			-30.015			-3.001
297203.000			-30.013			-3.001
297304.000			-30.015			-3.001
297405.000			-30.013			-3.001
297504.000			-30.013			-3.001
297604.000			-30.012			-3.001
297705.000			-30.012			-3.001
297804.000			-30.012			-3.001
297903.000			-30.012			-3.001
298005.000			-30.012			-3.001
298104.000			-30.012			-3.001
298204.000			-30.011			-3.001
298305.000			-30.011			-3.001
298404.000			-30.012			-3.001
298504.000			-30.011			-3.001
298604.000			-30.009			-3.001
298704.000			-30.010			-3.001
298803.000			-30.009			-3.001
298904.000			-30.009			-3.001
299004.000			-30.009			-3.001
299105.000			-30.008			-3.001
299204.000			-30.008			-3.001
299304.000			-30.007			-3.001
299405.000			-30.006			-3.001
299504.000			-30.006			-3.001
299604.000			-30.007			-3.001
299704.000			-30.007			-3.001
299804.000			-30.006			-3.001
299904.000			-30.005			-3.001
