# Acquired on 29/01/2024 15:39:44 
# SPIDER: Creep_8mm_HM077x145x38AB-2
# CREEP MEASUREMENT

# time [ms]		force [N]		stiffness [N/mm]
0.000			-26.204			-3.276
104.000			-26.729			-3.341
204.000			-26.876			-3.359
305.000			-26.727			-3.341
404.000			-26.663			-3.333
504.000			-26.612			-3.326
604.000			-26.565			-3.321
704.000			-26.523			-3.315
804.000			-26.486			-3.311
905.000			-26.453			-3.307
1004.000			-26.392			-3.299
1104.000			-26.366			-3.296
1205.000			-26.342			-3.293
1303.000			-26.319			-3.290
1404.000			-26.297			-3.287
1505.000			-26.275			-3.284
1604.000			-26.255			-3.282
1704.000			-26.219			-3.277
1804.000			-26.202			-3.275
1904.000			-26.184			-3.273
2004.000			-26.169			-3.271
2105.000			-26.153			-3.269
2204.000			-26.137			-3.267
2304.000			-26.124			-3.265
2405.000			-26.097			-3.262
2503.000			-26.083			-3.260
2604.000			-26.069			-3.259
2705.000			-26.057			-3.257
2804.000			-26.046			-3.256
2904.000			-26.034			-3.254
3004.000			-26.023			-3.253
3104.000			-26.012			-3.251
3204.000			-25.992			-3.249
3304.000			-25.982			-3.248
3404.000			-25.971			-3.246
3505.000			-25.962			-3.245
3604.000			-25.953			-3.244
3703.000			-25.943			-3.243
3805.000			-25.933			-3.242
3904.000			-25.915			-3.239
4004.000			-25.906			-3.238
4105.000			-25.899			-3.237
4204.000			-25.890			-3.236
4304.000			-25.882			-3.235
4404.000			-25.874			-3.234
4504.000			-25.867			-3.233
4604.000			-25.851			-3.231
4705.000			-25.844			-3.230
4804.000			-25.836			-3.230
4903.000			-25.829			-3.229
5005.000			-25.821			-3.228
5104.000			-25.814			-3.227
5204.000			-25.806			-3.226
5305.000			-25.792			-3.224
5404.000			-25.786			-3.223
5504.000			-25.779			-3.222
5604.000			-25.773			-3.222
5704.000			-25.767			-3.221
5804.000			-25.761			-3.220
5905.000			-25.754			-3.219
6004.000			-25.748			-3.219
6104.000			-25.736			-3.217
6205.000			-25.730			-3.216
6303.000			-25.724			-3.215
6404.000			-25.718			-3.215
6505.000			-25.713			-3.214
6604.000			-25.707			-3.213
6705.000			-25.701			-3.213
6804.000			-25.690			-3.211
6904.000			-25.685			-3.211
7004.000			-25.679			-3.210
7104.000			-25.674			-3.209
7204.000			-25.668			-3.209
7305.000			-25.662			-3.208
7404.000			-25.658			-3.207
7503.000			-25.648			-3.206
7605.000			-25.642			-3.205
7704.000			-25.637			-3.205
7804.000			-25.633			-3.204
7905.000			-25.628			-3.203
8004.000			-25.623			-3.203
8104.000			-25.619			-3.202
8204.000			-25.610			-3.201
8304.000			-25.606			-3.201
8404.000			-25.601			-3.200
8505.000			-25.596			-3.200
8604.000			-25.592			-3.199
8704.000			-25.588			-3.198
8805.000			-25.583			-3.198
8903.000			-25.580			-3.197
9004.000			-25.571			-3.196
9105.000			-25.566			-3.196
9204.000			-25.562			-3.195
9304.000			-25.558			-3.195
9404.000			-25.554			-3.194
9504.000			-25.549			-3.194
9604.000			-25.546			-3.193
9704.000			-25.538			-3.192
9804.000			-25.534			-3.192
9905.000			-25.532			-3.191
10004.000			-25.527			-3.191
10103.000			-25.522			-3.190
10205.000			-25.517			-3.190
10304.000			-25.514			-3.189
10404.000			-25.507			-3.188
10505.000			-25.503			-3.188
10604.000			-25.499			-3.187
10704.000			-25.497			-3.187
10804.000			-25.494			-3.187
10904.000			-25.490			-3.186
11004.000			-25.485			-3.186
11105.000			-25.479			-3.185
11204.000			-25.475			-3.184
11304.000			-25.471			-3.184
11405.000			-25.467			-3.183
11503.000			-25.463			-3.183
11604.000			-25.460			-3.182
11705.000			-25.457			-3.182
11804.000			-25.454			-3.182
11904.000			-25.447			-3.181
12004.000			-25.445			-3.181
12104.000			-25.442			-3.180
12203.000			-25.438			-3.180
12305.000			-25.434			-3.179
12404.000			-25.432			-3.179
12504.000			-25.429			-3.179
12605.000			-25.422			-3.178
12703.000			-25.420			-3.177
12804.000			-25.417			-3.177
12905.000			-25.414			-3.177
13004.000			-25.409			-3.176
13105.000			-25.406			-3.176
13204.000			-25.404			-3.175
13304.000			-25.398			-3.175
13404.000			-25.395			-3.174
13504.000			-25.392			-3.174
13604.000			-25.389			-3.174
13705.000			-25.385			-3.173
13804.000			-25.383			-3.173
13904.000			-25.381			-3.173
14005.000			-25.375			-3.172
14103.000			-25.372			-3.172
14204.000			-25.369			-3.171
14305.000			-25.364			-3.171
14404.000			-25.362			-3.170
14504.000			-25.360			-3.170
14605.000			-25.358			-3.170
14704.000			-25.351			-3.169
14803.000			-25.349			-3.169
14905.000			-25.347			-3.168
15004.000			-25.345			-3.168
15104.000			-25.342			-3.168
15205.000			-25.339			-3.167
15304.000			-25.336			-3.167
15404.000			-25.334			-3.167
15504.000			-25.328			-3.166
15604.000			-25.325			-3.166
15704.000			-25.322			-3.165
15805.000			-25.320			-3.165
15904.000			-25.318			-3.165
16004.000			-25.316			-3.165
16105.000			-25.313			-3.164
16204.000			-25.308			-3.163
16305.000			-25.305			-3.163
16404.000			-25.304			-3.163
16504.000			-25.301			-3.163
16605.000			-25.299			-3.162
16703.000			-25.297			-3.162
16804.000			-25.294			-3.162
16905.000			-25.288			-3.161
17004.000			-25.285			-3.161
17104.000			-25.284			-3.161
17205.000			-25.283			-3.160
17304.000			-25.279			-3.160
17403.000			-25.276			-3.159
17505.000			-25.273			-3.159
17604.000			-25.270			-3.159
17704.000			-25.267			-3.158
17805.000			-25.265			-3.158
17904.000			-25.263			-3.158
18004.000			-25.260			-3.157
18104.000			-25.258			-3.157
18204.000			-25.255			-3.157
18304.000			-25.253			-3.157
18405.000			-25.249			-3.156
18504.000			-25.247			-3.156
18604.000			-25.245			-3.156
18705.000			-25.243			-3.155
18803.000			-25.239			-3.155
18904.000			-25.237			-3.155
19005.000			-25.236			-3.154
19104.000			-25.232			-3.154
19204.000			-25.229			-3.154
19304.000			-25.226			-3.153
19404.000			-25.225			-3.153
19503.000			-25.223			-3.153
19604.000			-25.221			-3.153
19704.000			-25.218			-3.152
19805.000			-25.214			-3.152
19904.000			-25.212			-3.152
20004.000			-25.210			-3.151
20105.000			-25.208			-3.151
20203.000			-25.206			-3.151
20304.000			-25.205			-3.151
20405.000			-25.202			-3.150
20504.000			-25.198			-3.150
20604.000			-25.196			-3.149
20705.000			-25.194			-3.149
20804.000			-25.192			-3.149
20903.000			-25.190			-3.149
21005.000			-25.188			-3.149
21104.000			-25.185			-3.148
21204.000			-25.184			-3.148
21305.000			-25.180			-3.147
21404.000			-25.179			-3.147
21504.000			-25.177			-3.147
21604.000			-25.175			-3.147
21704.000			-25.172			-3.146
21804.000			-25.170			-3.146
21905.000			-25.168			-3.146
22004.000			-25.165			-3.146
22103.000			-25.163			-3.145
22205.000			-25.161			-3.145
22304.000			-25.158			-3.145
22404.000			-25.155			-3.144
22505.000			-25.154			-3.144
22604.000			-25.153			-3.144
22705.000			-25.150			-3.144
22803.000			-25.148			-3.143
22904.000			-25.145			-3.143
23005.000			-25.143			-3.143
23104.000			-25.142			-3.143
23204.000			-25.140			-3.143
23305.000			-25.138			-3.142
23404.000			-25.134			-3.142
23503.000			-25.132			-3.141
23605.000			-25.131			-3.141
23704.000			-25.130			-3.141
23804.000			-25.127			-3.141
23905.000			-25.125			-3.141
24004.000			-25.125			-3.141
24104.000			-25.122			-3.140
24205.000			-25.120			-3.140
24304.000			-25.118			-3.140
24404.000			-25.115			-3.139
24505.000			-25.113			-3.139
24604.000			-25.113			-3.139
24703.000			-25.111			-3.139
24805.000			-25.109			-3.139
24904.000			-25.105			-3.138
25004.000			-25.104			-3.138
25105.000			-25.102			-3.138
25204.000			-25.099			-3.137
25304.000			-25.098			-3.137
25404.000			-25.096			-3.137
25504.000			-25.095			-3.137
25604.000			-25.092			-3.137
25704.000			-25.089			-3.136
25804.000			-25.087			-3.136
25905.000			-25.087			-3.136
26004.000			-25.085			-3.136
26103.000			-25.083			-3.135
26205.000			-25.081			-3.135
26304.000			-25.078			-3.135
26404.000			-25.077			-3.135
26505.000			-25.075			-3.134
26604.000			-25.073			-3.134
26704.000			-25.073			-3.134
26804.000			-25.071			-3.134
26904.000			-25.070			-3.134
27004.000			-25.067			-3.133
27105.000			-25.065			-3.133
27204.000			-25.064			-3.133
27303.000			-25.061			-3.133
27405.000			-25.058			-3.132
27504.000			-25.058			-3.132
27604.000			-25.057			-3.132
27705.000			-25.055			-3.132
27804.000			-25.052			-3.132
27904.000			-25.051			-3.131
28004.000			-25.049			-3.131
28104.000			-25.048			-3.131
28204.000			-25.046			-3.131
28305.000			-25.045			-3.131
28404.000			-25.044			-3.130
28504.000			-25.041			-3.130
28605.000			-25.039			-3.130
28703.000			-25.037			-3.130
28804.000			-25.036			-3.129
28905.000			-25.034			-3.129
29004.000			-25.033			-3.129
29105.000			-25.033			-3.129
29204.000			-25.027			-3.128
29304.000			-25.026			-3.128
29404.000			-25.026			-3.128
29504.000			-25.025			-3.128
29604.000			-25.024			-3.128
29705.000			-25.023			-3.128
29804.000			-25.021			-3.128
29903.000			-25.016			-3.127
30005.000			-25.014			-3.127
30104.000			-25.014			-3.127
30204.000			-25.011			-3.126
30305.000			-25.010			-3.126
30404.000			-25.010			-3.126
30504.000			-25.009			-3.126
30604.000			-25.007			-3.126
30704.000			-25.004			-3.125
30804.000			-25.002			-3.125
30905.000			-25.002			-3.125
31004.000			-25.001			-3.125
31104.000			-25.000			-3.125
31205.000			-24.998			-3.125
31303.000			-24.997			-3.125
31404.000			-24.992			-3.124
31505.000			-24.992			-3.124
31604.000			-24.991			-3.124
31704.000			-24.990			-3.124
31805.000			-24.989			-3.124
31904.000			-24.987			-3.123
32003.000			-24.985			-3.123
32105.000			-24.983			-3.123
32204.000			-24.982			-3.123
32305.000			-24.980			-3.123
32404.000			-24.979			-3.122
32504.000			-24.977			-3.122
32605.000			-24.976			-3.122
32703.000			-24.974			-3.122
32804.000			-24.972			-3.121
32905.000			-24.970			-3.121
33004.000			-24.970			-3.121
33104.000			-24.969			-3.121
33205.000			-24.966			-3.121
33304.000			-24.964			-3.121
33403.000			-24.963			-3.120
33505.000			-24.961			-3.120
33604.000			-24.960			-3.120
33704.000			-24.959			-3.120
33805.000			-24.957			-3.120
33903.000			-24.956			-3.120
34004.000			-24.955			-3.119
34105.000			-24.953			-3.119
34204.000			-24.952			-3.119
34304.000			-24.950			-3.119
34405.000			-24.949			-3.119
34504.000			-24.947			-3.118
34603.000			-24.945			-3.118
34705.000			-24.945			-3.118
34804.000			-24.944			-3.118
34904.000			-24.942			-3.118
35005.000			-24.940			-3.118
35104.000			-24.939			-3.117
35204.000			-24.938			-3.117
35303.000			-24.937			-3.117
35404.000			-24.935			-3.117
35505.000			-24.933			-3.117
35604.000			-24.932			-3.116
35704.000			-24.929			-3.116
35805.000			-24.930			-3.116
35904.000			-24.929			-3.116
36003.000			-24.926			-3.116
36105.000			-24.925			-3.116
36204.000			-24.923			-3.115
36304.000			-24.923			-3.115
36405.000			-24.920			-3.115
36504.000			-24.919			-3.115
36604.000			-24.918			-3.115
36704.000			-24.918			-3.115
36804.000			-24.916			-3.115
36904.000			-24.915			-3.114
37005.000			-24.914			-3.114
37104.000			-24.913			-3.114
37204.000			-24.910			-3.114
37305.000			-24.908			-3.114
37403.000			-24.907			-3.113
37504.000			-24.906			-3.113
37605.000			-24.904			-3.113
37704.000			-24.903			-3.113
37804.000			-24.903			-3.113
37905.000			-24.900			-3.113
38004.000			-24.898			-3.112
38103.000			-24.897			-3.112
38205.000			-24.897			-3.112
38304.000			-24.895			-3.112
38404.000			-24.894			-3.112
38505.000			-24.893			-3.112
38604.000			-24.890			-3.111
38705.000			-24.888			-3.111
38803.000			-24.888			-3.111
38904.000			-24.887			-3.111
39005.000			-24.886			-3.111
39104.000			-24.885			-3.111
39204.000			-24.883			-3.110
39305.000			-24.881			-3.110
39404.000			-24.880			-3.110
39503.000			-24.880			-3.110
39605.000			-24.878			-3.110
39704.000			-24.877			-3.110
39804.000			-24.876			-3.109
39905.000			-24.875			-3.109
40004.000			-24.873			-3.109
40104.000			-24.871			-3.109
40204.000			-24.871			-3.109
40304.000			-24.869			-3.109
40404.000			-24.867			-3.108
40505.000			-24.867			-3.108
40604.000			-24.867			-3.108
40704.000			-24.866			-3.108
40805.000			-24.862			-3.108
40903.000			-24.862			-3.108
41004.000			-24.860			-3.108
41105.000			-24.859			-3.107
41204.000			-24.858			-3.107
41304.000			-24.857			-3.107
41404.000			-24.857			-3.107
41504.000			-24.855			-3.107
41603.000			-24.853			-3.107
41705.000			-24.852			-3.106
41804.000			-24.851			-3.106
41905.000			-24.850			-3.106
42004.000			-24.849			-3.106
42103.000			-24.848			-3.106
42205.000			-24.846			-3.106
42304.000			-24.844			-3.106
42404.000			-24.843			-3.105
42505.000			-24.842			-3.105
42604.000			-24.841			-3.105
42704.000			-24.840			-3.105
42804.000			-24.839			-3.105
42904.000			-24.838			-3.105
43004.000			-24.836			-3.104
43105.000			-24.834			-3.104
43204.000			-24.832			-3.104
43304.000			-24.832			-3.104
43405.000			-24.833			-3.104
43503.000			-24.832			-3.104
43604.000			-24.831			-3.104
43705.000			-24.828			-3.104
43804.000			-24.827			-3.103
43904.000			-24.826			-3.103
44005.000			-24.826			-3.103
44104.000			-24.824			-3.103
44203.000			-24.823			-3.103
44305.000			-24.823			-3.103
44404.000			-24.820			-3.103
44504.000			-24.819			-3.102
44605.000			-24.818			-3.102
44704.000			-24.817			-3.102
44804.000			-24.816			-3.102
44903.000			-24.816			-3.102
45004.000			-24.815			-3.102
45105.000			-24.812			-3.102
45204.000			-24.811			-3.101
45304.000			-24.811			-3.101
45404.000			-24.810			-3.101
45504.000			-24.809			-3.101
45604.000			-24.807			-3.101
45705.000			-24.806			-3.101
45804.000			-24.806			-3.101
45904.000			-24.804			-3.101
46005.000			-24.803			-3.100
46103.000			-24.801			-3.100
46204.000			-24.802			-3.100
46305.000			-24.800			-3.100
46404.000			-24.798			-3.100
46504.000			-24.797			-3.100
46605.000			-24.795			-3.099
46704.000			-24.795			-3.099
46803.000			-24.794			-3.099
46905.000			-24.792			-3.099
47004.000			-24.792			-3.099
47104.000			-24.791			-3.099
47205.000			-24.790			-3.099
47304.000			-24.788			-3.099
47404.000			-24.787			-3.098
47504.000			-24.785			-3.098
47604.000			-24.784			-3.098
47703.000			-24.784			-3.098
47805.000			-24.784			-3.098
47904.000			-24.783			-3.098
48004.000			-24.780			-3.098
48105.000			-24.779			-3.097
48204.000			-24.778			-3.097
48305.000			-24.777			-3.097
48403.000			-24.777			-3.097
48504.000			-24.776			-3.097
48605.000			-24.775			-3.097
48704.000			-24.775			-3.097
48804.000			-24.772			-3.096
48905.000			-24.771			-3.096
49004.000			-24.770			-3.096
49103.000			-24.769			-3.096
49205.000			-24.768			-3.096
49304.000			-24.767			-3.096
49404.000			-24.766			-3.096
49505.000			-24.766			-3.096
49604.000			-24.764			-3.096
49704.000			-24.763			-3.095
49804.000			-24.763			-3.095
49904.000			-24.762			-3.095
50004.000			-24.762			-3.095
50105.000			-24.760			-3.095
50204.000			-24.758			-3.095
50304.000			-24.757			-3.095
50405.000			-24.757			-3.095
50503.000			-24.756			-3.094
50604.000			-24.754			-3.094
50705.000			-24.754			-3.094
50804.000			-24.752			-3.094
50904.000			-24.751			-3.094
51005.000			-24.750			-3.094
51104.000			-24.749			-3.094
51203.000			-24.747			-3.093
51305.000			-24.747			-3.093
51404.000			-24.745			-3.093
51505.000			-24.745			-3.093
51604.000			-24.743			-3.093
51704.000			-24.742			-3.093
51805.000			-24.742			-3.093
51903.000			-24.741			-3.093
52004.000			-24.741			-3.093
52105.000			-24.740			-3.093
52204.000			-24.739			-3.092
52304.000			-24.737			-3.092
52404.000			-24.736			-3.092
52504.000			-24.734			-3.092
52604.000			-24.733			-3.092
52705.000			-24.732			-3.092
52804.000			-24.731			-3.091
52904.000			-24.732			-3.092
53005.000			-24.730			-3.091
53103.000			-24.728			-3.091
53204.000			-24.727			-3.091
53305.000			-24.726			-3.091
53404.000			-24.725			-3.091
53504.000			-24.724			-3.090
53605.000			-24.725			-3.091
53704.000			-24.725			-3.091
53803.000			-24.722			-3.090
53905.000			-24.720			-3.090
54004.000			-24.720			-3.090
54104.000			-24.720			-3.090
54205.000			-24.720			-3.090
54304.000			-24.719			-3.090
54404.000			-24.719			-3.090
54503.000			-24.715			-3.089
54604.000			-24.715			-3.089
54705.000			-24.714			-3.089
54804.000			-24.712			-3.089
54904.000			-24.712			-3.089
55005.000			-24.712			-3.089
55104.000			-24.711			-3.089
55203.000			-24.710			-3.089
55305.000			-24.708			-3.089
55404.000			-24.708			-3.088
55504.000			-24.706			-3.088
55605.000			-24.706			-3.088
55704.000			-24.705			-3.088
55804.000			-24.704			-3.088
55904.000			-24.704			-3.088
56004.000			-24.704			-3.088
56104.000			-24.703			-3.088
56205.000			-24.700			-3.088
56304.000			-24.699			-3.087
56403.000			-24.698			-3.087
56505.000			-24.697			-3.087
56604.000			-24.697			-3.087
56704.000			-24.696			-3.087
56805.000			-24.694			-3.087
56904.000			-24.694			-3.087
57004.000			-24.694			-3.087
57104.000			-24.693			-3.087
57204.000			-24.692			-3.086
57303.000			-24.691			-3.086
57405.000			-24.689			-3.086
57504.000			-24.688			-3.086
57604.000			-24.687			-3.086
57705.000			-24.686			-3.086
57804.000			-24.686			-3.086
57905.000			-24.685			-3.086
58003.000			-24.684			-3.085
58104.000			-24.684			-3.085
58205.000			-24.682			-3.085
58304.000			-24.682			-3.085
58404.000			-24.681			-3.085
58505.000			-24.681			-3.085
58604.000			-24.680			-3.085
58703.000			-24.679			-3.085
58805.000			-24.677			-3.085
58904.000			-24.677			-3.085
59004.000			-24.676			-3.084
59105.000			-24.675			-3.084
59204.000			-24.674			-3.084
59304.000			-24.673			-3.084
59404.000			-24.672			-3.084
59504.000			-24.672			-3.084
59604.000			-24.669			-3.084
59705.000			-24.668			-3.084
59804.000			-24.668			-3.084
59904.000			-24.668			-3.084
60005.000			-24.669			-3.084
60103.000			-24.667			-3.083
60204.000			-24.666			-3.083
60305.000			-24.664			-3.083
60404.000			-24.664			-3.083
60504.000			-24.664			-3.083
60605.000			-24.661			-3.083
60704.000			-24.661			-3.083
60803.000			-24.660			-3.082
60905.000			-24.659			-3.082
61004.000			-24.658			-3.082
61105.000			-24.657			-3.082
61204.000			-24.657			-3.082
61304.000			-24.657			-3.082
61405.000			-24.656			-3.082
61503.000			-24.655			-3.082
61604.000			-24.653			-3.082
61705.000			-24.653			-3.082
61804.000			-24.652			-3.081
61904.000			-24.651			-3.081
62005.000			-24.651			-3.081
62104.000			-24.650			-3.081
62203.000			-24.649			-3.081
62305.000			-24.648			-3.081
62404.000			-24.648			-3.081
62504.000			-24.645			-3.081
62605.000			-24.644			-3.081
62703.000			-24.644			-3.081
62804.000			-24.644			-3.080
62905.000			-24.644			-3.081
63004.000			-24.643			-3.080
63104.000			-24.642			-3.080
63205.000			-24.641			-3.080
63304.000			-24.641			-3.080
63403.000			-24.639			-3.080
63505.000			-24.638			-3.080
63604.000			-24.637			-3.080
63704.000			-24.635			-3.079
63805.000			-24.636			-3.079
63904.000			-24.635			-3.079
64004.000			-24.634			-3.079
64103.000			-24.632			-3.079
64204.000			-24.631			-3.079
64305.000			-24.631			-3.079
64404.000			-24.632			-3.079
64504.000			-24.630			-3.079
64605.000			-24.629			-3.079
64704.000			-24.627			-3.078
64803.000			-24.626			-3.078
64905.000			-24.627			-3.078
65004.000			-24.626			-3.078
65104.000			-24.625			-3.078
65205.000			-24.624			-3.078
65304.000			-24.623			-3.078
65404.000			-24.623			-3.078
65504.000			-24.621			-3.078
65604.000			-24.621			-3.078
65704.000			-24.620			-3.078
65805.000			-24.620			-3.077
65904.000			-24.619			-3.077
66004.000			-24.617			-3.077
66105.000			-24.615			-3.077
66203.000			-24.616			-3.077
66304.000			-24.614			-3.077
66405.000			-24.613			-3.077
66504.000			-24.612			-3.076
66604.000			-24.612			-3.076
66705.000			-24.613			-3.077
66804.000			-24.611			-3.076
66903.000			-24.610			-3.076
67005.000			-24.609			-3.076
67104.000			-24.609			-3.076
67204.000			-24.608			-3.076
67305.000			-24.607			-3.076
67404.000			-24.606			-3.076
67505.000			-24.606			-3.076
67603.000			-24.606			-3.076
67704.000			-24.605			-3.076
67805.000			-24.604			-3.075
67904.000			-24.604			-3.075
68004.000			-24.602			-3.075
68105.000			-24.601			-3.075
68204.000			-24.601			-3.075
68303.000			-24.598			-3.075
68405.000			-24.598			-3.075
68504.000			-24.598			-3.075
68604.000			-24.598			-3.075
68705.000			-24.597			-3.075
68804.000			-24.595			-3.074
68904.000			-24.595			-3.074
69004.000			-24.594			-3.074
69104.000			-24.593			-3.074
69204.000			-24.593			-3.074
69305.000			-24.591			-3.074
69404.000			-24.591			-3.074
69504.000			-24.591			-3.074
69605.000			-24.590			-3.074
69703.000			-24.588			-3.074
69804.000			-24.588			-3.074
69905.000			-24.587			-3.073
70004.000			-24.586			-3.073
70104.000			-24.586			-3.073
70205.000			-24.585			-3.073
70304.000			-24.584			-3.073
70403.000			-24.584			-3.073
70505.000			-24.583			-3.073
70604.000			-24.582			-3.073
70705.000			-24.580			-3.073
70804.000			-24.580			-3.073
70904.000			-24.579			-3.072
71005.000			-24.579			-3.072
71103.000			-24.579			-3.072
71204.000			-24.579			-3.072
71305.000			-24.577			-3.072
71404.000			-24.576			-3.072
71504.000			-24.575			-3.072
71605.000			-24.574			-3.072
71704.000			-24.574			-3.072
71803.000			-24.573			-3.072
71905.000			-24.573			-3.072
72004.000			-24.572			-3.071
72104.000			-24.571			-3.071
72205.000			-24.571			-3.071
72304.000			-24.571			-3.071
72404.000			-24.569			-3.071
72504.000			-24.567			-3.071
72604.000			-24.566			-3.071
72704.000			-24.566			-3.071
72805.000			-24.565			-3.071
72904.000			-24.563			-3.070
73004.000			-24.563			-3.070
73105.000			-24.564			-3.070
73203.000			-24.564			-3.070
73304.000			-24.563			-3.070
73405.000			-24.563			-3.070
73504.000			-24.562			-3.070
73604.000			-24.561			-3.070
73704.000			-24.560			-3.070
73804.000			-24.558			-3.070
73903.000			-24.559			-3.070
74004.000			-24.557			-3.070
74103.000			-24.556			-3.069
74205.000			-24.555			-3.069
74304.000			-24.554			-3.069
74404.000			-24.554			-3.069
74505.000			-24.553			-3.069
74603.000			-24.552			-3.069
74704.000			-24.552			-3.069
74805.000			-24.552			-3.069
74904.000			-24.551			-3.069
75004.000			-24.549			-3.069
75105.000			-24.550			-3.069
75204.000			-24.550			-3.069
75303.000			-24.549			-3.069
75405.000			-24.547			-3.068
75503.000			-24.546			-3.068
75604.000			-24.546			-3.068
75705.000			-24.545			-3.068
75804.000			-24.545			-3.068
75904.000			-24.544			-3.068
76004.000			-24.542			-3.068
76104.000			-24.543			-3.068
76203.000			-24.543			-3.068
76305.000			-24.540			-3.068
76404.000			-24.541			-3.068
76504.000			-24.541			-3.068
76605.000			-24.540			-3.067
76704.000			-24.539			-3.067
76804.000			-24.538			-3.067
76903.000			-24.537			-3.067
77004.000			-24.536			-3.067
77105.000			-24.535			-3.067
77204.000			-24.534			-3.067
77304.000			-24.534			-3.067
77405.000			-24.533			-3.067
77504.000			-24.532			-3.066
77603.000			-24.532			-3.066
77705.000			-24.530			-3.066
77804.000			-24.530			-3.066
77904.000			-24.531			-3.066
78005.000			-24.530			-3.066
78104.000			-24.529			-3.066
78204.000			-24.529			-3.066
78304.000			-24.529			-3.066
78404.000			-24.526			-3.066
78504.000			-24.526			-3.066
78605.000			-24.525			-3.066
78704.000			-24.525			-3.066
78804.000			-24.525			-3.066
78905.000			-24.525			-3.066
79003.000			-24.524			-3.066
79104.000			-24.524			-3.065
79205.000			-24.522			-3.065
79304.000			-24.521			-3.065
79404.000			-24.520			-3.065
79505.000			-24.520			-3.065
79604.000			-24.520			-3.065
79703.000			-24.518			-3.065
79805.000			-24.518			-3.065
79904.000			-24.516			-3.065
80004.000			-24.515			-3.064
80105.000			-24.515			-3.064
80204.000			-24.514			-3.064
80305.000			-24.515			-3.064
80403.000			-24.515			-3.064
80504.000			-24.514			-3.064
80605.000			-24.511			-3.064
80704.000			-24.511			-3.064
80804.000			-24.510			-3.064
80905.000			-24.510			-3.064
81004.000			-24.509			-3.064
81103.000			-24.509			-3.064
81205.000			-24.509			-3.064
81304.000			-24.507			-3.063
81404.000			-24.507			-3.063
81505.000			-24.507			-3.063
81603.000			-24.507			-3.063
81704.000			-24.506			-3.063
81805.000			-24.505			-3.063
81904.000			-24.504			-3.063
82004.000			-24.503			-3.063
82105.000			-24.502			-3.063
82204.000			-24.502			-3.063
82303.000			-24.502			-3.063
82405.000			-24.500			-3.063
82504.000			-24.499			-3.062
82604.000			-24.499			-3.062
82705.000			-24.498			-3.062
82804.000			-24.497			-3.062
82904.000			-24.496			-3.062
83004.000			-24.496			-3.062
83104.000			-24.496			-3.062
83203.000			-24.495			-3.062
83305.000			-24.494			-3.062
83404.000			-24.494			-3.062
83505.000			-24.492			-3.062
83604.000			-24.493			-3.062
83703.000			-24.492			-3.061
83805.000			-24.491			-3.061
83904.000			-24.490			-3.061
84004.000			-24.490			-3.061
84105.000			-24.489			-3.061
84204.000			-24.487			-3.061
84304.000			-24.488			-3.061
84405.000			-24.488			-3.061
84504.000			-24.486			-3.061
84603.000			-24.485			-3.061
84705.000			-24.485			-3.061
84804.000			-24.485			-3.061
84904.000			-24.485			-3.061
85005.000			-24.485			-3.061
85104.000			-24.485			-3.061
85204.000			-24.483			-3.060
85304.000			-24.481			-3.060
85404.000			-24.482			-3.060
85504.000			-24.482			-3.060
85605.000			-24.480			-3.060
85704.000			-24.478			-3.060
85804.000			-24.478			-3.060
85905.000			-24.478			-3.060
86003.000			-24.479			-3.060
86104.000			-24.477			-3.060
86205.000			-24.476			-3.059
86304.000			-24.475			-3.059
86404.000			-24.474			-3.059
86504.000			-24.474			-3.059
86604.000			-24.474			-3.059
86703.000			-24.473			-3.059
86804.000			-24.474			-3.059
86904.000			-24.473			-3.059
87005.000			-24.472			-3.059
87104.000			-24.470			-3.059
87204.000			-24.470			-3.059
87305.000			-24.470			-3.059
87403.000			-24.469			-3.059
87504.000			-24.468			-3.059
87605.000			-24.468			-3.058
87704.000			-24.468			-3.058
87804.000			-24.468			-3.058
87905.000			-24.466			-3.058
88004.000			-24.466			-3.058
88103.000			-24.466			-3.058
88205.000			-24.464			-3.058
88304.000			-24.463			-3.058
88404.000			-24.463			-3.058
88505.000			-24.462			-3.058
88604.000			-24.462			-3.058
88704.000			-24.462			-3.058
88804.000			-24.461			-3.058
88904.000			-24.460			-3.057
89003.000			-24.460			-3.057
89105.000			-24.459			-3.057
89204.000			-24.458			-3.057
89304.000			-24.458			-3.057
89405.000			-24.456			-3.057
89504.000			-24.456			-3.057
89604.000			-24.456			-3.057
89703.000			-24.456			-3.057
89804.000			-24.456			-3.057
89905.000			-24.454			-3.057
90004.000			-24.452			-3.057
90104.000			-24.453			-3.057
90205.000			-24.452			-3.057
90304.000			-24.452			-3.056
90403.000			-24.451			-3.056
90505.000			-24.451			-3.056
90604.000			-24.450			-3.056
90704.000			-24.449			-3.056
90805.000			-24.448			-3.056
90904.000			-24.448			-3.056
91004.000			-24.447			-3.056
91104.000			-24.447			-3.056
91204.000			-24.447			-3.056
91304.000			-24.446			-3.056
91405.000			-24.447			-3.056
91504.000			-24.445			-3.056
91604.000			-24.444			-3.055
91705.000			-24.443			-3.055
91803.000			-24.443			-3.055
91904.000			-24.442			-3.055
92005.000			-24.442			-3.055
92104.000			-24.442			-3.055
92204.000			-24.440			-3.055
92304.000			-24.440			-3.055
92404.000			-24.440			-3.055
92503.000			-24.440			-3.055
92605.000			-24.438			-3.055
92704.000			-24.438			-3.055
92804.000			-24.438			-3.055
92905.000			-24.435			-3.054
93004.000			-24.435			-3.054
93105.000			-24.436			-3.055
93203.000			-24.436			-3.054
93304.000			-24.435			-3.054
93405.000			-24.435			-3.054
93504.000			-24.435			-3.054
93604.000			-24.433			-3.054
93704.000			-24.432			-3.054
93804.000			-24.431			-3.054
93903.000			-24.430			-3.054
94005.000			-24.431			-3.054
94104.000			-24.430			-3.054
94204.000			-24.430			-3.054
94305.000			-24.428			-3.054
94404.000			-24.427			-3.053
94504.000			-24.426			-3.053
94604.000			-24.426			-3.053
94704.000			-24.425			-3.053
94804.000			-24.424			-3.053
94905.000			-24.425			-3.053
95004.000			-24.425			-3.053
95103.000			-24.424			-3.053
95205.000			-24.423			-3.053
95304.000			-24.423			-3.053
95404.000			-24.422			-3.053
95505.000			-24.422			-3.053
95604.000			-24.422			-3.053
95704.000			-24.421			-3.053
95804.000			-24.419			-3.052
95904.000			-24.418			-3.052
96003.000			-24.419			-3.052
96105.000			-24.419			-3.052
96204.000			-24.417			-3.052
96305.000			-24.416			-3.052
96404.000			-24.415			-3.052
96503.000			-24.416			-3.052
96605.000			-24.415			-3.052
96704.000			-24.415			-3.052
96804.000			-24.414			-3.052
96905.000			-24.414			-3.052
97004.000			-24.413			-3.052
97104.000			-24.413			-3.052
97204.000			-24.412			-3.052
97304.000			-24.411			-3.051
97403.000			-24.411			-3.051
97505.000			-24.411			-3.051
97604.000			-24.410			-3.051
97704.000			-24.410			-3.051
97805.000			-24.409			-3.051
97904.000			-24.409			-3.051
98004.000			-24.407			-3.051
98104.000			-24.407			-3.051
98204.000			-24.407			-3.051
98304.000			-24.406			-3.051
98405.000			-24.406			-3.051
98504.000			-24.406			-3.051
98604.000			-24.406			-3.051
98705.000			-24.404			-3.050
98803.000			-24.403			-3.050
98904.000			-24.402			-3.050
99005.000			-24.402			-3.050
99104.000			-24.402			-3.050
99204.000			-24.400			-3.050
99304.000			-24.399			-3.050
99404.000			-24.401			-3.050
99503.000			-24.400			-3.050
99604.000			-24.399			-3.050
99704.000			-24.399			-3.050
99805.000			-24.397			-3.050
99904.000			-24.397			-3.050
100004.000			-24.397			-3.050
100105.000			-24.396			-3.049
100203.000			-24.395			-3.049
100304.000			-24.395			-3.049
100405.000			-24.395			-3.049
100504.000			-24.395			-3.049
100604.000			-24.394			-3.049
100705.000			-24.394			-3.049
100804.000			-24.394			-3.049
100903.000			-24.393			-3.049
101005.000			-24.391			-3.049
101104.000			-24.390			-3.049
101204.000			-24.390			-3.049
101305.000			-24.390			-3.049
101404.000			-24.390			-3.049
101504.000			-24.390			-3.049
101604.000			-24.389			-3.049
101704.000			-24.387			-3.048
101804.000			-24.388			-3.048
101905.000			-24.388			-3.049
102004.000			-24.387			-3.048
102104.000			-24.386			-3.048
102205.000			-24.385			-3.048
102304.000			-24.384			-3.048
102404.000			-24.384			-3.048
102503.000			-24.383			-3.048
102604.000			-24.384			-3.048
102705.000			-24.383			-3.048
102804.000			-24.382			-3.048
102904.000			-24.382			-3.048
103005.000			-24.382			-3.048
103104.000			-24.380			-3.048
103203.000			-24.380			-3.048
103305.000			-24.380			-3.047
103404.000			-24.379			-3.047
103504.000			-24.379			-3.047
103605.000			-24.378			-3.047
103704.000			-24.377			-3.047
103804.000			-24.376			-3.047
103904.000			-24.376			-3.047
104004.000			-24.375			-3.047
104104.000			-24.374			-3.047
104205.000			-24.373			-3.047
104304.000			-24.374			-3.047
104404.000			-24.375			-3.047
104505.000			-24.374			-3.047
104603.000			-24.372			-3.047
104704.000			-24.372			-3.046
104805.000			-24.371			-3.046
104904.000			-24.370			-3.046
105004.000			-24.370			-3.046
105105.000			-24.370			-3.046
105204.000			-24.370			-3.046
105303.000			-24.370			-3.046
105405.000			-24.370			-3.046
105504.000			-24.368			-3.046
105604.000			-24.368			-3.046
105705.000			-24.368			-3.046
105804.000			-24.367			-3.046
105905.000			-24.366			-3.046
106003.000			-24.365			-3.046
106104.000			-24.365			-3.046
106205.000			-24.364			-3.046
106304.000			-24.364			-3.046
106404.000			-24.364			-3.045
106505.000			-24.363			-3.045
106604.000			-24.361			-3.045
106703.000			-24.362			-3.045
106805.000			-24.361			-3.045
106904.000			-24.361			-3.045
107004.000			-24.360			-3.045
107105.000			-24.359			-3.045
107204.000			-24.358			-3.045
107304.000			-24.358			-3.045
107405.000			-24.358			-3.045
107504.000			-24.357			-3.045
107603.000			-24.356			-3.045
107705.000			-24.356			-3.044
107804.000			-24.356			-3.045
107904.000			-24.356			-3.045
108005.000			-24.355			-3.044
108104.000			-24.354			-3.044
108204.000			-24.356			-3.044
108304.000			-24.354			-3.044
108404.000			-24.352			-3.044
108504.000			-24.352			-3.044
108605.000			-24.353			-3.044
108704.000			-24.352			-3.044
108804.000			-24.352			-3.044
108905.000			-24.351			-3.044
109003.000			-24.350			-3.044
109105.000			-24.349			-3.044
109204.000			-24.350			-3.044
109304.000			-24.349			-3.044
109405.000			-24.350			-3.044
109504.000			-24.349			-3.044
109604.000			-24.348			-3.044
109704.000			-24.348			-3.043
109804.000			-24.347			-3.043
109904.000			-24.345			-3.043
110005.000			-24.346			-3.043
110104.000			-24.345			-3.043
110204.000			-24.344			-3.043
110305.000			-24.344			-3.043
110403.000			-24.344			-3.043
110504.000			-24.343			-3.043
110605.000			-24.342			-3.043
110704.000			-24.342			-3.043
110804.000			-24.342			-3.043
110905.000			-24.342			-3.043
111004.000			-24.340			-3.042
111103.000			-24.341			-3.043
111205.000			-24.341			-3.043
111304.000			-24.340			-3.042
111404.000			-24.339			-3.042
111505.000			-24.339			-3.042
111604.000			-24.338			-3.042
111704.000			-24.338			-3.042
111804.000			-24.337			-3.042
111904.000			-24.336			-3.042
112003.000			-24.335			-3.042
112105.000			-24.335			-3.042
112204.000			-24.336			-3.042
112305.000			-24.335			-3.042
112404.000			-24.335			-3.042
112503.000			-24.334			-3.042
112605.000			-24.334			-3.042
112704.000			-24.333			-3.042
112804.000			-24.332			-3.042
112905.000			-24.332			-3.042
113004.000			-24.331			-3.041
113104.000			-24.330			-3.041
113204.000			-24.330			-3.041
113304.000			-24.329			-3.041
113403.000			-24.329			-3.041
113505.000			-24.329			-3.041
113604.000			-24.329			-3.041
113704.000			-24.328			-3.041
113805.000			-24.328			-3.041
113903.000			-24.326			-3.041
114004.000			-24.327			-3.041
114104.000			-24.326			-3.041
114204.000			-24.325			-3.041
114304.000			-24.324			-3.041
114405.000			-24.324			-3.041
114504.000			-24.324			-3.041
114603.000			-24.323			-3.040
114705.000			-24.323			-3.040
114804.000			-24.322			-3.040
114904.000			-24.321			-3.040
115005.000			-24.320			-3.040
115104.000			-24.321			-3.040
115204.000			-24.321			-3.040
115303.000			-24.320			-3.040
115404.000			-24.319			-3.040
115505.000			-24.319			-3.040
115604.000			-24.318			-3.040
115704.000			-24.319			-3.040
115805.000			-24.319			-3.040
115904.000			-24.317			-3.040
116003.000			-24.316			-3.039
116105.000			-24.316			-3.039
116203.000			-24.315			-3.039
116304.000			-24.316			-3.039
116405.000			-24.315			-3.039
116504.000			-24.315			-3.039
116604.000			-24.314			-3.039
116705.000			-24.314			-3.039
116804.000			-24.313			-3.039
116903.000			-24.314			-3.039
117005.000			-24.314			-3.039
117104.000			-24.312			-3.039
117204.000			-24.311			-3.039
117305.000			-24.310			-3.039
117404.000			-24.309			-3.039
117504.000			-24.309			-3.039
117604.000			-24.309			-3.039
117704.000			-24.310			-3.039
117804.000			-24.310			-3.039
117905.000			-24.308			-3.038
118004.000			-24.307			-3.038
118104.000			-24.308			-3.038
118205.000			-24.306			-3.038
118303.000			-24.306			-3.038
118404.000			-24.306			-3.038
118505.000			-24.306			-3.038
118604.000			-24.305			-3.038
118705.000			-24.306			-3.038
118804.000			-24.305			-3.038
118904.000			-24.303			-3.038
119004.000			-24.302			-3.038
119104.000			-24.303			-3.038
119204.000			-24.302			-3.038
119305.000			-24.301			-3.038
119404.000			-24.301			-3.038
119504.000			-24.301			-3.038
119605.000			-24.301			-3.038
119703.000			-24.299			-3.037
119804.000			-24.300			-3.037
119905.000			-24.300			-3.037
120004.000			-24.298			-3.037
120104.000			-24.297			-3.037
120205.000			-24.298			-3.037
120304.000			-24.297			-3.037
120403.000			-24.297			-3.037
120505.000			-24.296			-3.037
120604.000			-24.296			-3.037
120704.000			-24.296			-3.037
120805.000			-24.295			-3.037
120904.000			-24.293			-3.037
121004.000			-24.293			-3.037
121104.000			-24.292			-3.037
121204.000			-24.292			-3.037
121304.000			-24.292			-3.037
121405.000			-24.292			-3.036
121504.000			-24.291			-3.036
121604.000			-24.291			-3.036
121705.000			-24.291			-3.036
121803.000			-24.291			-3.036
121905.000			-24.290			-3.036
122004.000			-24.289			-3.036
122104.000			-24.288			-3.036
122205.000			-24.288			-3.036
122304.000			-24.288			-3.036
122404.000			-24.288			-3.036
122504.000			-24.288			-3.036
122604.000			-24.286			-3.036
122703.000			-24.286			-3.036
122805.000			-24.285			-3.036
122904.000			-24.285			-3.036
123004.000			-24.285			-3.036
123105.000			-24.284			-3.036
123204.000			-24.285			-3.036
123304.000			-24.284			-3.036
123404.000			-24.284			-3.035
123504.000			-24.283			-3.035
123604.000			-24.282			-3.035
123705.000			-24.282			-3.035
123804.000			-24.281			-3.035
123904.000			-24.281			-3.035
124005.000			-24.279			-3.035
124103.000			-24.279			-3.035
124204.000			-24.280			-3.035
124305.000			-24.280			-3.035
124404.000			-24.280			-3.035
124504.000			-24.279			-3.035
124605.000			-24.278			-3.035
124704.000			-24.278			-3.035
124803.000			-24.277			-3.035
124905.000			-24.277			-3.035
125004.000			-24.276			-3.034
125105.000			-24.276			-3.034
125204.000			-24.275			-3.034
125304.000			-24.275			-3.034
125405.000			-24.274			-3.034
125503.000			-24.274			-3.034
125604.000			-24.272			-3.034
125705.000			-24.273			-3.034
125804.000			-24.273			-3.034
125904.000			-24.272			-3.034
126005.000			-24.272			-3.034
126104.000			-24.271			-3.034
126203.000			-24.270			-3.034
126305.000			-24.271			-3.034
126404.000			-24.271			-3.034
126504.000			-24.271			-3.034
126605.000			-24.269			-3.034
126704.000			-24.268			-3.034
126804.000			-24.268			-3.034
126904.000			-24.269			-3.034
127004.000			-24.269			-3.034
127103.000			-24.268			-3.033
127205.000			-24.266			-3.033
127304.000			-24.266			-3.033
127404.000			-24.265			-3.033
127505.000			-24.265			-3.033
127604.000			-24.264			-3.033
127704.000			-24.263			-3.033
127804.000			-24.263			-3.033
127904.000			-24.263			-3.033
128004.000			-24.263			-3.033
128104.000			-24.262			-3.033
128204.000			-24.262			-3.033
128305.000			-24.262			-3.033
128404.000			-24.262			-3.033
128503.000			-24.263			-3.033
128605.000			-24.262			-3.033
128704.000			-24.262			-3.033
128804.000			-24.261			-3.033
128905.000			-24.261			-3.033
129004.000			-24.259			-3.032
129104.000			-24.259			-3.032
129204.000			-24.257			-3.032
129304.000			-24.257			-3.032
129404.000			-24.257			-3.032
129505.000			-24.256			-3.032
129604.000			-24.256			-3.032
129704.000			-24.256			-3.032
129805.000			-24.255			-3.032
129903.000			-24.255			-3.032
130004.000			-24.255			-3.032
130105.000			-24.254			-3.032
130204.000			-24.254			-3.032
130304.000			-24.253			-3.032
130405.000			-24.252			-3.032
130504.000			-24.253			-3.032
130603.000			-24.253			-3.032
130705.000			-24.253			-3.032
130804.000			-24.252			-3.032
130904.000			-24.252			-3.031
131005.000			-24.251			-3.031
131104.000			-24.250			-3.031
131204.000			-24.249			-3.031
131304.000			-24.249			-3.031
131404.000			-24.249			-3.031
131503.000			-24.249			-3.031
131604.000			-24.249			-3.031
131704.000			-24.248			-3.031
131805.000			-24.248			-3.031
131904.000			-24.248			-3.031
132004.000			-24.246			-3.031
132105.000			-24.247			-3.031
132203.000			-24.246			-3.031
132304.000			-24.245			-3.031
132404.000			-24.245			-3.031
132504.000			-24.245			-3.031
132604.000			-24.245			-3.031
132705.000			-24.244			-3.031
132804.000			-24.244			-3.030
132904.000			-24.243			-3.030
133005.000			-24.242			-3.030
133103.000			-24.242			-3.030
133204.000			-24.242			-3.030
133305.000			-24.242			-3.030
133404.000			-24.240			-3.030
133504.000			-24.240			-3.030
133605.000			-24.240			-3.030
133704.000			-24.240			-3.030
133803.000			-24.241			-3.030
133905.000			-24.240			-3.030
134003.000			-24.239			-3.030
134104.000			-24.238			-3.030
134205.000			-24.237			-3.030
134304.000			-24.237			-3.030
134404.000			-24.236			-3.030
134504.000			-24.236			-3.030
134604.000			-24.235			-3.029
134703.000			-24.235			-3.029
134804.000			-24.235			-3.029
134904.000			-24.235			-3.029
135005.000			-24.233			-3.029
135104.000			-24.233			-3.029
135204.000			-24.234			-3.029
135305.000			-24.233			-3.029
135404.000			-24.232			-3.029
135504.000			-24.232			-3.029
135604.000			-24.232			-3.029
135704.000			-24.232			-3.029
135804.000			-24.231			-3.029
135905.000			-24.231			-3.029
136004.000			-24.231			-3.029
136104.000			-24.231			-3.029
136205.000			-24.230			-3.029
136303.000			-24.228			-3.029
136404.000			-24.229			-3.029
136505.000			-24.228			-3.029
136604.000			-24.227			-3.028
136704.000			-24.226			-3.028
136805.000			-24.226			-3.028
136904.000			-24.226			-3.028
137004.000			-24.226			-3.028
137105.000			-24.226			-3.028
137203.000			-24.226			-3.028
137304.000			-24.226			-3.028
137405.000			-24.226			-3.028
137504.000			-24.225			-3.028
137604.000			-24.223			-3.028
137704.000			-24.224			-3.028
137804.000			-24.222			-3.028
137905.000			-24.222			-3.028
138004.000			-24.222			-3.028
138103.000			-24.221			-3.028
138205.000			-24.222			-3.028
138304.000			-24.221			-3.028
138404.000			-24.221			-3.028
138505.000			-24.221			-3.028
138604.000			-24.221			-3.028
138704.000			-24.221			-3.028
138804.000			-24.219			-3.027
138904.000			-24.218			-3.027
139003.000			-24.218			-3.027
139105.000			-24.218			-3.027
139204.000			-24.217			-3.027
139304.000			-24.217			-3.027
139405.000			-24.217			-3.027
139504.000			-24.217			-3.027
139604.000			-24.216			-3.027
139704.000			-24.215			-3.027
139804.000			-24.214			-3.027
139903.000			-24.215			-3.027
140005.000			-24.214			-3.027
140104.000			-24.214			-3.027
140204.000			-24.214			-3.027
140305.000			-24.214			-3.027
140404.000			-24.213			-3.027
140504.000			-24.213			-3.027
140604.000			-24.212			-3.026
140704.000			-24.211			-3.026
140804.000			-24.211			-3.026
140904.000			-24.211			-3.026
141004.000			-24.211			-3.026
141105.000			-24.210			-3.026
141204.000			-24.210			-3.026
141303.000			-24.210			-3.026
141405.000			-24.208			-3.026
141504.000			-24.208			-3.026
141604.000			-24.209			-3.026
141705.000			-24.209			-3.026
141804.000			-24.208			-3.026
141904.000			-24.209			-3.026
142005.000			-24.207			-3.026
142104.000			-24.206			-3.026
142203.000			-24.206			-3.026
142305.000			-24.207			-3.026
142404.000			-24.205			-3.026
142504.000			-24.205			-3.026
142605.000			-24.205			-3.026
142704.000			-24.203			-3.025
142804.000			-24.204			-3.025
142904.000			-24.204			-3.026
143004.000			-24.204			-3.025
143103.000			-24.204			-3.025
143205.000			-24.202			-3.025
143304.000			-24.202			-3.025
143404.000			-24.201			-3.025
143505.000			-24.201			-3.025
143604.000			-24.201			-3.025
143704.000			-24.201			-3.025
143804.000			-24.200			-3.025
143904.000			-24.201			-3.025
144004.000			-24.199			-3.025
144104.000			-24.198			-3.025
144204.000			-24.198			-3.025
144305.000			-24.199			-3.025
144404.000			-24.200			-3.025
144504.000			-24.198			-3.025
144605.000			-24.198			-3.025
144703.000			-24.198			-3.025
144804.000			-24.196			-3.025
144905.000			-24.195			-3.024
145004.000			-24.195			-3.024
145104.000			-24.196			-3.024
145205.000			-24.196			-3.024
145304.000			-24.194			-3.024
145404.000			-24.194			-3.024
145505.000			-24.194			-3.024
145603.000			-24.194			-3.024
145704.000			-24.191			-3.024
145805.000			-24.192			-3.024
145904.000			-24.191			-3.024
146004.000			-24.191			-3.024
146105.000			-24.191			-3.024
146204.000			-24.191			-3.024
146304.000			-24.191			-3.024
146405.000			-24.189			-3.024
146503.000			-24.189			-3.024
146604.000			-24.188			-3.023
146705.000			-24.187			-3.023
146804.000			-24.189			-3.024
146904.000			-24.190			-3.024
147005.000			-24.189			-3.024
147104.000			-24.187			-3.023
147204.000			-24.187			-3.023
147305.000			-24.188			-3.023
147403.000			-24.187			-3.023
147505.000			-24.186			-3.023
147604.000			-24.185			-3.023
147704.000			-24.185			-3.023
147805.000			-24.184			-3.023
147904.000			-24.184			-3.023
148004.000			-24.184			-3.023
148105.000			-24.183			-3.023
148204.000			-24.183			-3.023
148303.000			-24.184			-3.023
148405.000			-24.183			-3.023
148504.000			-24.182			-3.023
148604.000			-24.181			-3.023
148705.000			-24.180			-3.022
148804.000			-24.179			-3.022
148904.000			-24.180			-3.022
149005.000			-24.179			-3.022
149104.000			-24.180			-3.022
149203.000			-24.180			-3.022
149305.000			-24.179			-3.022
149404.000			-24.178			-3.022
149504.000			-24.177			-3.022
149605.000			-24.177			-3.022
149704.000			-24.178			-3.022
149804.000			-24.177			-3.022
149905.000			-24.177			-3.022
150004.000			-24.177			-3.022
150103.000			-24.176			-3.022
150205.000			-24.176			-3.022
150304.000			-24.176			-3.022
150404.000			-24.175			-3.022
150505.000			-24.174			-3.022
150604.000			-24.173			-3.022
150705.000			-24.174			-3.022
150804.000			-24.173			-3.022
150904.000			-24.173			-3.022
151004.000			-24.172			-3.021
151104.000			-24.172			-3.021
151204.000			-24.172			-3.021
151305.000			-24.171			-3.021
151404.000			-24.171			-3.021
151504.000			-24.170			-3.021
151605.000			-24.170			-3.021
151704.000			-24.170			-3.021
151804.000			-24.169			-3.021
151904.000			-24.170			-3.021
152004.000			-24.169			-3.021
152104.000			-24.169			-3.021
152205.000			-24.168			-3.021
152304.000			-24.168			-3.021
152404.000			-24.168			-3.021
152505.000			-24.167			-3.021
152604.000			-24.166			-3.021
152704.000			-24.166			-3.021
152804.000			-24.166			-3.021
152904.000			-24.166			-3.021
153004.000			-24.166			-3.021
153105.000			-24.166			-3.021
153204.000			-24.165			-3.021
153304.000			-24.164			-3.021
153405.000			-24.163			-3.020
153504.000			-24.163			-3.020
153604.000			-24.163			-3.020
153703.000			-24.161			-3.020
153804.000			-24.161			-3.020
153905.000			-24.161			-3.020
154004.000			-24.162			-3.020
154104.000			-24.162			-3.020
154205.000			-24.162			-3.020
154304.000			-24.161			-3.020
154403.000			-24.161			-3.020
154505.000			-24.161			-3.020
154604.000			-24.160			-3.020
154704.000			-24.160			-3.020
154805.000			-24.159			-3.020
154904.000			-24.159			-3.020
155004.000			-24.159			-3.020
155105.000			-24.157			-3.020
155204.000			-24.157			-3.020
155303.000			-24.158			-3.020
155405.000			-24.157			-3.020
155504.000			-24.156			-3.019
155604.000			-24.156			-3.020
155705.000			-24.155			-3.019
155804.000			-24.154			-3.019
155904.000			-24.154			-3.019
156005.000			-24.153			-3.019
156104.000			-24.153			-3.019
156203.000			-24.153			-3.019
156305.000			-24.154			-3.019
156404.000			-24.153			-3.019
156504.000			-24.152			-3.019
156605.000			-24.151			-3.019
156704.000			-24.151			-3.019
156804.000			-24.150			-3.019
156904.000			-24.150			-3.019
157004.000			-24.152			-3.019
157103.000			-24.151			-3.019
157204.000			-24.149			-3.019
157304.000			-24.150			-3.019
157405.000			-24.149			-3.019
157504.000			-24.149			-3.019
157604.000			-24.149			-3.019
157705.000			-24.148			-3.019
157804.000			-24.148			-3.019
157904.000			-24.148			-3.019
158004.000			-24.147			-3.018
158104.000			-24.147			-3.018
158204.000			-24.147			-3.018
158305.000			-24.146			-3.018
158404.000			-24.146			-3.018
158504.000			-24.146			-3.018
158605.000			-24.146			-3.018
158704.000			-24.146			-3.018
158804.000			-24.145			-3.018
158904.000			-24.144			-3.018
159004.000			-24.142			-3.018
159104.000			-24.142			-3.018
159205.000			-24.142			-3.018
159304.000			-24.142			-3.018
159404.000			-24.143			-3.018
159505.000			-24.142			-3.018
159604.000			-24.142			-3.018
159704.000			-24.141			-3.018
159804.000			-24.141			-3.018
159904.000			-24.140			-3.017
160004.000			-24.140			-3.018
160104.000			-24.141			-3.018
160204.000			-24.138			-3.017
160305.000			-24.138			-3.017
160404.000			-24.138			-3.017
160503.000			-24.138			-3.017
160605.000			-24.138			-3.017
160703.000			-24.137			-3.017
160804.000			-24.139			-3.017
160905.000			-24.138			-3.017
161004.000			-24.136			-3.017
161104.000			-24.135			-3.017
161205.000			-24.135			-3.017
161304.000			-24.136			-3.017
161403.000			-24.136			-3.017
161505.000			-24.136			-3.017
161604.000			-24.135			-3.017
161704.000			-24.135			-3.017
161805.000			-24.134			-3.017
161904.000			-24.133			-3.017
162004.000			-24.132			-3.017
162105.000			-24.132			-3.017
162204.000			-24.133			-3.017
162303.000			-24.133			-3.017
162405.000			-24.132			-3.016
162504.000			-24.132			-3.017
162604.000			-24.132			-3.016
162705.000			-24.131			-3.016
162804.000			-24.130			-3.016
162904.000			-24.129			-3.016
163004.000			-24.130			-3.016
163104.000			-24.129			-3.016
163203.000			-24.129			-3.016
163305.000			-24.127			-3.016
163404.000			-24.127			-3.016
163505.000			-24.127			-3.016
163604.000			-24.128			-3.016
163704.000			-24.128			-3.016
163805.000			-24.126			-3.016
163903.000			-24.126			-3.016
164004.000			-24.128			-3.016
164105.000			-24.126			-3.016
164204.000			-24.126			-3.016
164304.000			-24.126			-3.016
164405.000			-24.125			-3.016
164504.000			-24.125			-3.016
164604.000			-24.124			-3.016
164705.000			-24.122			-3.015
164803.000			-24.122			-3.015
164904.000			-24.123			-3.015
165005.000			-24.123			-3.015
165104.000			-24.124			-3.015
165204.000			-24.122			-3.015
165305.000			-24.122			-3.015
165404.000			-24.121			-3.015
165503.000			-24.121			-3.015
165605.000			-24.121			-3.015
165704.000			-24.121			-3.015
165804.000			-24.122			-3.015
165905.000			-24.121			-3.015
166004.000			-24.119			-3.015
166104.000			-24.119			-3.015
166205.000			-24.119			-3.015
166304.000			-24.119			-3.015
166403.000			-24.118			-3.015
166505.000			-24.118			-3.015
166604.000			-24.117			-3.015
166705.000			-24.117			-3.015
166804.000			-24.116			-3.014
166904.000			-24.115			-3.014
167005.000			-24.115			-3.014
167104.000			-24.115			-3.014
167204.000			-24.115			-3.014
167304.000			-24.116			-3.014
167404.000			-24.114			-3.014
167504.000			-24.113			-3.014
167605.000			-24.114			-3.014
167704.000			-24.114			-3.014
167804.000			-24.114			-3.014
167905.000			-24.114			-3.014
168004.000			-24.114			-3.014
168104.000			-24.112			-3.014
168204.000			-24.111			-3.014
168304.000			-24.111			-3.014
168404.000			-24.110			-3.014
168505.000			-24.111			-3.014
168604.000			-24.111			-3.014
168704.000			-24.109			-3.014
168805.000			-24.110			-3.014
168904.000			-24.110			-3.014
169004.000			-24.110			-3.014
169104.000			-24.110			-3.014
169204.000			-24.109			-3.014
169304.000			-24.108			-3.013
169405.000			-24.107			-3.013
169504.000			-24.107			-3.013
169604.000			-24.108			-3.013
169705.000			-24.107			-3.013
169804.000			-24.106			-3.013
169905.000			-24.106			-3.013
170003.000			-24.107			-3.013
170104.000			-24.106			-3.013
170205.000			-24.106			-3.013
170304.000			-24.106			-3.013
170404.000			-24.105			-3.013
170505.000			-24.105			-3.013
170604.000			-24.104			-3.013
170703.000			-24.103			-3.013
170805.000			-24.104			-3.013
170904.000			-24.104			-3.013
171004.000			-24.103			-3.013
171105.000			-24.102			-3.013
171204.000			-24.102			-3.013
171304.000			-24.102			-3.013
171405.000			-24.102			-3.013
171504.000			-24.102			-3.013
171603.000			-24.102			-3.013
171705.000			-24.101			-3.013
171804.000			-24.100			-3.013
171904.000			-24.101			-3.013
172005.000			-24.101			-3.013
172104.000			-24.100			-3.013
172204.000			-24.100			-3.012
172304.000			-24.098			-3.012
172404.000			-24.098			-3.012
172503.000			-24.099			-3.012
172605.000			-24.099			-3.012
172704.000			-24.098			-3.012
172804.000			-24.097			-3.012
172905.000			-24.096			-3.012
173004.000			-24.097			-3.012
173105.000			-24.097			-3.012
173204.000			-24.096			-3.012
173304.000			-24.095			-3.012
173404.000			-24.095			-3.012
173504.000			-24.096			-3.012
173604.000			-24.095			-3.012
173705.000			-24.094			-3.012
173804.000			-24.094			-3.012
173904.000			-24.093			-3.012
174005.000			-24.093			-3.012
174104.000			-24.094			-3.012
174204.000			-24.094			-3.012
174304.000			-24.093			-3.012
174404.000			-24.092			-3.011
174504.000			-24.092			-3.012
174605.000			-24.092			-3.011
174704.000			-24.090			-3.011
174804.000			-24.090			-3.011
174905.000			-24.090			-3.011
175004.000			-24.089			-3.011
175104.000			-24.089			-3.011
175204.000			-24.089			-3.011
175304.000			-24.089			-3.011
175404.000			-24.089			-3.011
175505.000			-24.088			-3.011
175604.000			-24.088			-3.011
175704.000			-24.088			-3.011
175805.000			-24.088			-3.011
175903.000			-24.087			-3.011
176004.000			-24.087			-3.011
176103.000			-24.088			-3.011
176204.000			-24.087			-3.011
176305.000			-24.087			-3.011
176404.000			-24.086			-3.011
176504.000			-24.086			-3.011
176605.000			-24.085			-3.011
176704.000			-24.085			-3.011
176804.000			-24.084			-3.011
176905.000			-24.084			-3.011
177003.000			-24.085			-3.011
177104.000			-24.084			-3.010
177205.000			-24.083			-3.010
177304.000			-24.083			-3.010
177404.000			-24.083			-3.010
177505.000			-24.083			-3.010
177604.000			-24.084			-3.010
177704.000			-24.082			-3.010
177805.000			-24.082			-3.010
177903.000			-24.080			-3.010
178004.000			-24.079			-3.010
178105.000			-24.080			-3.010
178204.000			-24.080			-3.010
178304.000			-24.080			-3.010
178405.000			-24.079			-3.010
178504.000			-24.079			-3.010
178604.000			-24.079			-3.010
178705.000			-24.080			-3.010
178803.000			-24.078			-3.010
178904.000			-24.078			-3.010
179005.000			-24.077			-3.010
179104.000			-24.077			-3.010
179204.000			-24.076			-3.010
179304.000			-24.077			-3.010
179404.000			-24.077			-3.010
179505.000			-24.077			-3.010
179604.000			-24.075			-3.009
179703.000			-24.075			-3.009
179805.000			-24.075			-3.009
179903.000			-24.075			-3.009
180004.000			-24.075			-3.009
180105.000			-24.075			-3.009
180204.000			-24.073			-3.009
180304.000			-24.073			-3.009
180405.000			-24.072			-3.009
180504.000			-24.072			-3.009
180603.000			-24.072			-3.009
180705.000			-24.073			-3.009
180804.000			-24.073			-3.009
180904.000			-24.072			-3.009
181005.000			-24.071			-3.009
181104.000			-24.071			-3.009
181204.000			-24.070			-3.009
181305.000			-24.070			-3.009
181404.000			-24.070			-3.009
181503.000			-24.070			-3.009
181605.000			-24.069			-3.009
181704.000			-24.068			-3.009
181804.000			-24.068			-3.009
181905.000			-24.069			-3.009
182004.000			-24.069			-3.009
182104.000			-24.068			-3.008
182205.000			-24.067			-3.008
182304.000			-24.067			-3.008
182403.000			-24.066			-3.008
182505.000			-24.066			-3.008
182604.000			-24.065			-3.008
182705.000			-24.065			-3.008
182804.000			-24.065			-3.008
182904.000			-24.065			-3.008
183005.000			-24.065			-3.008
183104.000			-24.065			-3.008
183204.000			-24.063			-3.008
183304.000			-24.064			-3.008
183404.000			-24.063			-3.008
183504.000			-24.064			-3.008
183605.000			-24.064			-3.008
183704.000			-24.063			-3.008
183804.000			-24.062			-3.008
183905.000			-24.062			-3.008
184004.000			-24.060			-3.008
184104.000			-24.061			-3.008
184204.000			-24.061			-3.008
184304.000			-24.061			-3.008
184404.000			-24.059			-3.007
184505.000			-24.060			-3.008
184604.000			-24.059			-3.007
184704.000			-24.059			-3.007
184805.000			-24.059			-3.007
184904.000			-24.059			-3.007
185004.000			-24.059			-3.007
185104.000			-24.059			-3.007
185204.000			-24.058			-3.007
185304.000			-24.057			-3.007
185405.000			-24.057			-3.007
185504.000			-24.055			-3.007
185604.000			-24.056			-3.007
185705.000			-24.056			-3.007
185804.000			-24.057			-3.007
185905.000			-24.057			-3.007
186003.000			-24.056			-3.007
186104.000			-24.055			-3.007
186205.000			-24.055			-3.007
186304.000			-24.055			-3.007
186404.000			-24.054			-3.007
186505.000			-24.054			-3.007
186604.000			-24.053			-3.007
186704.000			-24.052			-3.007
186805.000			-24.053			-3.007
186903.000			-24.053			-3.007
187004.000			-24.053			-3.007
187104.000			-24.051			-3.006
187204.000			-24.051			-3.006
187304.000			-24.051			-3.006
187405.000			-24.050			-3.006
187504.000			-24.051			-3.006
187604.000			-24.051			-3.006
187705.000			-24.050			-3.006
187803.000			-24.050			-3.006
187904.000			-24.051			-3.006
188005.000			-24.051			-3.006
188104.000			-24.049			-3.006
188204.000			-24.049			-3.006
188305.000			-24.049			-3.006
188404.000			-24.049			-3.006
188504.000			-24.048			-3.006
188605.000			-24.048			-3.006
188703.000			-24.048			-3.006
188804.000			-24.047			-3.006
188905.000			-24.047			-3.006
189004.000			-24.047			-3.006
189105.000			-24.046			-3.006
189204.000			-24.045			-3.006
189304.000			-24.045			-3.006
189405.000			-24.046			-3.006
189504.000			-24.045			-3.006
189603.000			-24.044			-3.005
189705.000			-24.044			-3.006
189804.000			-24.044			-3.006
189904.000			-24.043			-3.005
190005.000			-24.044			-3.005
190104.000			-24.044			-3.005
190204.000			-24.042			-3.005
190305.000			-24.041			-3.005
190404.000			-24.041			-3.005
190503.000			-24.042			-3.005
190605.000			-24.042			-3.005
190704.000			-24.041			-3.005
190804.000			-24.041			-3.005
190905.000			-24.042			-3.005
191004.000			-24.041			-3.005
191104.000			-24.040			-3.005
191205.000			-24.040			-3.005
191304.000			-24.038			-3.005
191403.000			-24.038			-3.005
191505.000			-24.038			-3.005
191604.000			-24.038			-3.005
191704.000			-24.039			-3.005
191805.000			-24.039			-3.005
191904.000			-24.038			-3.005
192004.000			-24.038			-3.005
192104.000			-24.038			-3.005
192204.000			-24.037			-3.005
192303.000			-24.037			-3.005
192404.000			-24.037			-3.005
192504.000			-24.037			-3.005
192605.000			-24.035			-3.004
192704.000			-24.035			-3.004
192804.000			-24.034			-3.004
192905.000			-24.034			-3.004
193003.000			-24.035			-3.004
193104.000			-24.035			-3.004
193204.000			-24.034			-3.004
193304.000			-24.033			-3.004
193404.000			-24.032			-3.004
193505.000			-24.033			-3.004
193604.000			-24.033			-3.004
193704.000			-24.033			-3.004
193805.000			-24.032			-3.004
193903.000			-24.032			-3.004
194004.000			-24.031			-3.004
194105.000			-24.030			-3.004
194204.000			-24.031			-3.004
194304.000			-24.030			-3.004
194405.000			-24.030			-3.004
194504.000			-24.030			-3.004
194604.000			-24.030			-3.004
194705.000			-24.030			-3.004
194803.000			-24.029			-3.004
194904.000			-24.030			-3.004
195005.000			-24.030			-3.004
195104.000			-24.029			-3.004
195204.000			-24.028			-3.004
195304.000			-24.029			-3.004
195404.000			-24.029			-3.004
195505.000			-24.028			-3.003
195604.000			-24.028			-3.004
195703.000			-24.027			-3.003
195805.000			-24.026			-3.003
195904.000			-24.026			-3.003
196004.000			-24.026			-3.003
196105.000			-24.026			-3.003
196204.000			-24.026			-3.003
196304.000			-24.026			-3.003
196405.000			-24.024			-3.003
196504.000			-24.024			-3.003
196603.000			-24.024			-3.003
196705.000			-24.024			-3.003
196804.000			-24.024			-3.003
196904.000			-24.023			-3.003
197005.000			-24.023			-3.003
197104.000			-24.023			-3.003
197204.000			-24.021			-3.003
197305.000			-24.021			-3.003
197404.000			-24.022			-3.003
197503.000			-24.022			-3.003
197605.000			-24.021			-3.003
197704.000			-24.021			-3.003
197804.000			-24.021			-3.003
197905.000			-24.020			-3.003
198004.000			-24.020			-3.003
198104.000			-24.020			-3.003
198204.000			-24.019			-3.002
198304.000			-24.018			-3.002
198403.000			-24.019			-3.002
198505.000			-24.020			-3.002
198604.000			-24.019			-3.002
198705.000			-24.017			-3.002
198804.000			-24.017			-3.002
198904.000			-24.018			-3.002
199005.000			-24.018			-3.002
199104.000			-24.019			-3.002
199204.000			-24.016			-3.002
199304.000			-24.015			-3.002
199404.000			-24.016			-3.002
199504.000			-24.016			-3.002
199605.000			-24.016			-3.002
199704.000			-24.015			-3.002
199804.000			-24.015			-3.002
199905.000			-24.014			-3.002
200004.000			-24.015			-3.002
200104.000			-24.014			-3.002
200204.000			-24.014			-3.002
200304.000			-24.013			-3.002
200404.000			-24.013			-3.002
200505.000			-24.013			-3.002
200604.000			-24.013			-3.002
200704.000			-24.012			-3.002
200805.000			-24.012			-3.001
200903.000			-24.012			-3.001
201004.000			-24.012			-3.001
201105.000			-24.012			-3.001
201204.000			-24.011			-3.001
201304.000			-24.010			-3.001
201405.000			-24.010			-3.001
201504.000			-24.010			-3.001
201603.000			-24.009			-3.001
201705.000			-24.008			-3.001
201803.000			-24.010			-3.001
201905.000			-24.009			-3.001
202004.000			-24.009			-3.001
202104.000			-24.009			-3.001
202205.000			-24.009			-3.001
202304.000			-24.007			-3.001
202404.000			-24.006			-3.001
202504.000			-24.006			-3.001
202604.000			-24.007			-3.001
202704.000			-24.007			-3.001
202805.000			-24.007			-3.001
202904.000			-24.006			-3.001
203004.000			-24.005			-3.001
203105.000			-24.005			-3.001
203203.000			-24.006			-3.001
203304.000			-24.007			-3.001
203405.000			-24.006			-3.001
203504.000			-24.005			-3.001
203604.000			-24.004			-3.000
203705.000			-24.004			-3.000
203804.000			-24.004			-3.000
203904.000			-24.004			-3.000
204005.000			-24.004			-3.000
204103.000			-24.004			-3.000
204204.000			-24.003			-3.000
204305.000			-24.002			-3.000
204404.000			-24.001			-3.000
204504.000			-24.001			-3.000
204605.000			-24.001			-3.000
204704.000			-24.000			-3.000
204803.000			-24.000			-3.000
204905.000			-24.000			-3.000
205004.000			-24.000			-3.000
205105.000			-24.000			-3.000
205204.000			-24.000			-3.000
205304.000			-23.999			-3.000
205405.000			-23.999			-3.000
205504.000			-24.000			-3.000
205604.000			-24.000			-3.000
205704.000			-23.999			-3.000
205804.000			-23.997			-3.000
205903.000			-23.998			-3.000
206005.000			-23.998			-3.000
206104.000			-23.998			-3.000
206204.000			-23.997			-3.000
206305.000			-23.996			-3.000
206404.000			-23.996			-3.000
206504.000			-23.996			-3.000
206604.000			-23.996			-3.000
206704.000			-23.995			-2.999
206803.000			-23.995			-2.999
206905.000			-23.995			-2.999
207004.000			-23.995			-2.999
207104.000			-23.995			-2.999
207205.000			-23.994			-2.999
207304.000			-23.995			-2.999
207404.000			-23.995			-2.999
207504.000			-23.994			-2.999
207604.000			-23.993			-2.999
207703.000			-23.994			-2.999
207805.000			-23.992			-2.999
207904.000			-23.992			-2.999
208004.000			-23.992			-2.999
208105.000			-23.991			-2.999
208204.000			-23.991			-2.999
208305.000			-23.991			-2.999
208403.000			-23.990			-2.999
208504.000			-23.990			-2.999
208604.000			-23.990			-2.999
208704.000			-23.990			-2.999
208804.000			-23.989			-2.999
208905.000			-23.989			-2.999
209004.000			-23.989			-2.999
209104.000			-23.988			-2.999
209205.000			-23.988			-2.999
209303.000			-23.988			-2.999
209404.000			-23.989			-2.999
209504.000			-23.989			-2.999
209604.000			-23.989			-2.999
209704.000			-23.987			-2.998
209805.000			-23.985			-2.998
209904.000			-23.986			-2.998
210004.000			-23.986			-2.998
210105.000			-23.986			-2.998
210203.000			-23.985			-2.998
210304.000			-23.986			-2.998
210404.000			-23.985			-2.998
210504.000			-23.984			-2.998
210604.000			-23.985			-2.998
210705.000			-23.985			-2.998
210804.000			-23.985			-2.998
210904.000			-23.984			-2.998
211005.000			-23.984			-2.998
211103.000			-23.984			-2.998
211204.000			-23.984			-2.998
211303.000			-23.984			-2.998
211404.000			-23.984			-2.998
211505.000			-23.984			-2.998
211604.000			-23.982			-2.998
211704.000			-23.982			-2.998
211805.000			-23.981			-2.998
211904.000			-23.980			-2.998
212003.000			-23.981			-2.998
212105.000			-23.981			-2.998
212204.000			-23.981			-2.998
212304.000			-23.980			-2.997
212405.000			-23.980			-2.997
212504.000			-23.979			-2.997
212604.000			-23.978			-2.997
212705.000			-23.979			-2.997
212804.000			-23.979			-2.997
212903.000			-23.978			-2.997
213005.000			-23.979			-2.997
213103.000			-23.978			-2.997
213204.000			-23.977			-2.997
213305.000			-23.977			-2.997
213404.000			-23.976			-2.997
213504.000			-23.977			-2.997
213605.000			-23.978			-2.997
213704.000			-23.976			-2.997
213803.000			-23.976			-2.997
213905.000			-23.975			-2.997
214003.000			-23.975			-2.997
214104.000			-23.975			-2.997
214205.000			-23.976			-2.997
214304.000			-23.974			-2.997
214404.000			-23.974			-2.997
214504.000			-23.975			-2.997
214604.000			-23.974			-2.997
214703.000			-23.974			-2.997
214804.000			-23.973			-2.997
214903.000			-23.973			-2.997
215005.000			-23.972			-2.997
215104.000			-23.972			-2.997
215204.000			-23.973			-2.997
215305.000			-23.973			-2.997
215404.000			-23.972			-2.997
215504.000			-23.972			-2.996
215604.000			-23.971			-2.996
215704.000			-23.971			-2.996
215803.000			-23.972			-2.997
215905.000			-23.971			-2.996
216004.000			-23.970			-2.996
216104.000			-23.970			-2.996
216205.000			-23.969			-2.996
216304.000			-23.971			-2.996
216404.000			-23.970			-2.996
216504.000			-23.970			-2.996
216604.000			-23.970			-2.996
216703.000			-23.969			-2.996
216805.000			-23.968			-2.996
216904.000			-23.968			-2.996
217004.000			-23.967			-2.996
217105.000			-23.967			-2.996
217204.000			-23.966			-2.996
217304.000			-23.966			-2.996
217404.000			-23.967			-2.996
217504.000			-23.966			-2.996
217603.000			-23.966			-2.996
217705.000			-23.966			-2.996
217804.000			-23.966			-2.996
217905.000			-23.966			-2.996
218004.000			-23.965			-2.996
218104.000			-23.965			-2.996
218205.000			-23.965			-2.996
218304.000			-23.963			-2.995
218404.000			-23.963			-2.995
218504.000			-23.964			-2.995
218604.000			-23.963			-2.995
218704.000			-23.963			-2.995
218805.000			-23.962			-2.995
218904.000			-23.963			-2.995
219004.000			-23.963			-2.995
219105.000			-23.963			-2.995
219204.000			-23.963			-2.995
219304.000			-23.963			-2.995
219404.000			-23.962			-2.995
219504.000			-23.961			-2.995
219604.000			-23.961			-2.995
219705.000			-23.960			-2.995
219804.000			-23.960			-2.995
219904.000			-23.960			-2.995
220005.000			-23.960			-2.995
220104.000			-23.960			-2.995
220204.000			-23.960			-2.995
220304.000			-23.960			-2.995
220404.000			-23.959			-2.995
220504.000			-23.958			-2.995
220605.000			-23.957			-2.995
220704.000			-23.957			-2.995
220804.000			-23.957			-2.995
220905.000			-23.958			-2.995
221004.000			-23.959			-2.995
221105.000			-23.958			-2.995
221203.000			-23.957			-2.995
221304.000			-23.958			-2.995
221405.000			-23.957			-2.995
221504.000			-23.956			-2.994
221604.000			-23.956			-2.994
221705.000			-23.956			-2.995
221804.000			-23.956			-2.995
221904.000			-23.955			-2.994
222005.000			-23.955			-2.994
222103.000			-23.955			-2.994
222204.000			-23.954			-2.994
222305.000			-23.954			-2.994
222404.000			-23.954			-2.994
222504.000			-23.954			-2.994
222605.000			-23.953			-2.994
222704.000			-23.953			-2.994
222804.000			-23.953			-2.994
222905.000			-23.952			-2.994
223003.000			-23.952			-2.994
223104.000			-23.953			-2.994
223205.000			-23.952			-2.994
223304.000			-23.951			-2.994
223404.000			-23.952			-2.994
223505.000			-23.952			-2.994
223604.000			-23.951			-2.994
223703.000			-23.951			-2.994
223805.000			-23.951			-2.994
223903.000			-23.951			-2.994
224004.000			-23.950			-2.994
224105.000			-23.949			-2.994
224204.000			-23.949			-2.994
224305.000			-23.949			-2.994
224404.000			-23.949			-2.994
224504.000			-23.950			-2.994
224604.000			-23.948			-2.993
224704.000			-23.948			-2.993
224803.000			-23.948			-2.994
224905.000			-23.948			-2.994
225004.000			-23.948			-2.993
225104.000			-23.947			-2.993
225205.000			-23.947			-2.993
225304.000			-23.946			-2.993
225404.000			-23.947			-2.993
225504.000			-23.946			-2.993
225604.000			-23.946			-2.993
225703.000			-23.946			-2.993
225805.000			-23.945			-2.993
225904.000			-23.945			-2.993
226004.000			-23.946			-2.993
226105.000			-23.945			-2.993
226204.000			-23.944			-2.993
226304.000			-23.944			-2.993
226404.000			-23.945			-2.993
226504.000			-23.944			-2.993
226603.000			-23.943			-2.993
226705.000			-23.943			-2.993
226804.000			-23.942			-2.993
226904.000			-23.942			-2.993
227005.000			-23.943			-2.993
227104.000			-23.943			-2.993
227204.000			-23.942			-2.993
227304.000			-23.941			-2.993
227404.000			-23.941			-2.993
227503.000			-23.941			-2.993
227604.000			-23.941			-2.993
227704.000			-23.941			-2.993
227805.000			-23.941			-2.993
227904.000			-23.941			-2.993
228004.000			-23.940			-2.993
228105.000			-23.940			-2.993
228203.000			-23.940			-2.992
228304.000			-23.939			-2.992
228404.000			-23.939			-2.992
228504.000			-23.939			-2.992
228604.000			-23.938			-2.992
228705.000			-23.939			-2.992
228804.000			-23.937			-2.992
228904.000			-23.937			-2.992
229005.000			-23.937			-2.992
229104.000			-23.936			-2.992
229204.000			-23.936			-2.992
229304.000			-23.936			-2.992
229404.000			-23.936			-2.992
229504.000			-23.935			-2.992
229605.000			-23.936			-2.992
229704.000			-23.936			-2.992
229804.000			-23.935			-2.992
229905.000			-23.935			-2.992
230004.000			-23.935			-2.992
230104.000			-23.935			-2.992
230204.000			-23.935			-2.992
230304.000			-23.933			-2.992
230404.000			-23.933			-2.992
230504.000			-23.934			-2.992
230604.000			-23.934			-2.992
230705.000			-23.934			-2.992
230804.000			-23.932			-2.992
230903.000			-23.932			-2.991
231005.000			-23.933			-2.992
231104.000			-23.931			-2.991
231204.000			-23.930			-2.991
231305.000			-23.931			-2.991
231404.000			-23.931			-2.991
231504.000			-23.931			-2.991
231605.000			-23.931			-2.991
231704.000			-23.932			-2.991
231803.000			-23.930			-2.991
231905.000			-23.930			-2.991
232004.000			-23.930			-2.991
232104.000			-23.929			-2.991
232205.000			-23.929			-2.991
232304.000			-23.929			-2.991
232404.000			-23.928			-2.991
232505.000			-23.927			-2.991
232604.000			-23.927			-2.991
232703.000			-23.929			-2.991
232805.000			-23.928			-2.991
232904.000			-23.928			-2.991
233004.000			-23.927			-2.991
233105.000			-23.927			-2.991
233204.000			-23.927			-2.991
233304.000			-23.928			-2.991
233405.000			-23.927			-2.991
233504.000			-23.927			-2.991
233603.000			-23.926			-2.991
233705.000			-23.926			-2.991
233804.000			-23.926			-2.991
233905.000			-23.925			-2.991
234004.000			-23.926			-2.991
234104.000			-23.925			-2.991
234205.000			-23.925			-2.991
234304.000			-23.925			-2.991
234404.000			-23.924			-2.991
234504.000			-23.924			-2.990
234604.000			-23.923			-2.990
234704.000			-23.922			-2.990
234805.000			-23.922			-2.990
234904.000			-23.923			-2.990
235004.000			-23.922			-2.990
235105.000			-23.923			-2.990
235204.000			-23.924			-2.990
235304.000			-23.923			-2.990
235404.000			-23.922			-2.990
235504.000			-23.922			-2.990
235604.000			-23.921			-2.990
235705.000			-23.920			-2.990
235804.000			-23.921			-2.990
235904.000			-23.922			-2.990
236005.000			-23.921			-2.990
236103.000			-23.919			-2.990
236204.000			-23.919			-2.990
236304.000			-23.920			-2.990
236404.000			-23.919			-2.990
236504.000			-23.919			-2.990
236605.000			-23.919			-2.990
236704.000			-23.919			-2.990
236804.000			-23.920			-2.990
236905.000			-23.919			-2.990
237004.000			-23.918			-2.990
237105.000			-23.919			-2.990
237203.000			-23.918			-2.990
237304.000			-23.916			-2.990
237405.000			-23.917			-2.990
237504.000			-23.917			-2.990
237604.000			-23.916			-2.989
237705.000			-23.917			-2.990
237804.000			-23.918			-2.990
237904.000			-23.917			-2.990
238005.000			-23.916			-2.990
238103.000			-23.916			-2.989
238204.000			-23.915			-2.989
238305.000			-23.915			-2.989
238404.000			-23.914			-2.989
238504.000			-23.914			-2.989
238605.000			-23.914			-2.989
238704.000			-23.914			-2.989
238804.000			-23.914			-2.989
238905.000			-23.915			-2.989
239003.000			-23.914			-2.989
239104.000			-23.913			-2.989
239205.000			-23.913			-2.989
239304.000			-23.912			-2.989
239404.000			-23.911			-2.989
239505.000			-23.912			-2.989
239604.000			-23.911			-2.989
239704.000			-23.912			-2.989
239805.000			-23.911			-2.989
239903.000			-23.911			-2.989
240004.000			-23.911			-2.989
240105.000			-23.910			-2.989
240204.000			-23.910			-2.989
240305.000			-23.910			-2.989
240404.000			-23.911			-2.989
240504.000			-23.909			-2.989
240605.000			-23.909			-2.989
240704.000			-23.909			-2.989
240803.000			-23.908			-2.989
240905.000			-23.909			-2.989
241004.000			-23.909			-2.989
241104.000			-23.908			-2.988
241205.000			-23.907			-2.988
241304.000			-23.908			-2.989
241404.000			-23.908			-2.988
241504.000			-23.908			-2.988
241604.000			-23.908			-2.988
241703.000			-23.908			-2.988
241805.000			-23.907			-2.988
241904.000			-23.906			-2.988
242004.000			-23.905			-2.988
242105.000			-23.905			-2.988
242204.000			-23.906			-2.988
242304.000			-23.907			-2.988
242404.000			-23.906			-2.988
242504.000			-23.905			-2.988
242603.000			-23.904			-2.988
242705.000			-23.904			-2.988
242804.000			-23.904			-2.988
242904.000			-23.904			-2.988
243005.000			-23.904			-2.988
243104.000			-23.904			-2.988
243204.000			-23.903			-2.988
243303.000			-23.902			-2.988
243404.000			-23.903			-2.988
243503.000			-23.903			-2.988
243604.000			-23.903			-2.988
243704.000			-23.903			-2.988
243805.000			-23.901			-2.988
243904.000			-23.901			-2.988
244004.000			-23.901			-2.988
244105.000			-23.902			-2.988
244203.000			-23.901			-2.988
244304.000			-23.901			-2.988
244405.000			-23.900			-2.988
244504.000			-23.899			-2.987
244604.000			-23.899			-2.987
244705.000			-23.899			-2.987
244804.000			-23.899			-2.987
244904.000			-23.898			-2.987
245005.000			-23.898			-2.987
245103.000			-23.899			-2.987
245204.000			-23.898			-2.987
245304.000			-23.898			-2.987
245404.000			-23.899			-2.987
245504.000			-23.899			-2.987
245605.000			-23.897			-2.987
245704.000			-23.897			-2.987
245804.000			-23.897			-2.987
245905.000			-23.896			-2.987
246004.000			-23.896			-2.987
246104.000			-23.897			-2.987
246204.000			-23.896			-2.987
246304.000			-23.895			-2.987
246404.000			-23.895			-2.987
246504.000			-23.895			-2.987
246604.000			-23.894			-2.987
246705.000			-23.895			-2.987
246804.000			-23.895			-2.987
246904.000			-23.895			-2.987
247005.000			-23.894			-2.987
247103.000			-23.894			-2.987
247204.000			-23.893			-2.987
247305.000			-23.893			-2.987
247404.000			-23.893			-2.987
247504.000			-23.893			-2.987
247605.000			-23.892			-2.987
247704.000			-23.892			-2.987
247804.000			-23.893			-2.987
247905.000			-23.891			-2.986
248003.000			-23.891			-2.986
248104.000			-23.891			-2.986
248205.000			-23.891			-2.986
248304.000			-23.891			-2.986
248404.000			-23.891			-2.986
248505.000			-23.891			-2.986
248604.000			-23.891			-2.986
248704.000			-23.891			-2.986
248805.000			-23.891			-2.986
248903.000			-23.891			-2.986
249004.000			-23.890			-2.986
249104.000			-23.890			-2.986
249204.000			-23.889			-2.986
249304.000			-23.889			-2.986
249405.000			-23.888			-2.986
249504.000			-23.888			-2.986
249604.000			-23.887			-2.986
249705.000			-23.889			-2.986
249804.000			-23.889			-2.986
249905.000			-23.888			-2.986
250003.000			-23.888			-2.986
250104.000			-23.887			-2.986
250204.000			-23.886			-2.986
250304.000			-23.887			-2.986
250404.000			-23.886			-2.986
250505.000			-23.887			-2.986
250604.000			-23.887			-2.986
250704.000			-23.886			-2.986
250805.000			-23.886			-2.986
250904.000			-23.885			-2.986
251004.000			-23.885			-2.986
251104.000			-23.885			-2.986
251204.000			-23.884			-2.986
251304.000			-23.885			-2.986
251405.000			-23.884			-2.985
251504.000			-23.883			-2.985
251604.000			-23.883			-2.985
251705.000			-23.884			-2.985
251804.000			-23.884			-2.986
251904.000			-23.882			-2.985
252004.000			-23.883			-2.985
252104.000			-23.883			-2.985
252204.000			-23.882			-2.985
252305.000			-23.882			-2.985
252404.000			-23.883			-2.985
252504.000			-23.882			-2.985
252605.000			-23.881			-2.985
252703.000			-23.881			-2.985
252804.000			-23.880			-2.985
252903.000			-23.881			-2.985
253004.000			-23.881			-2.985
253105.000			-23.881			-2.985
253204.000			-23.880			-2.985
253304.000			-23.881			-2.985
253405.000			-23.880			-2.985
253504.000			-23.879			-2.985
253603.000			-23.880			-2.985
253705.000			-23.879			-2.985
253803.000			-23.879			-2.985
253904.000			-23.879			-2.985
254005.000			-23.879			-2.985
254104.000			-23.878			-2.985
254204.000			-23.879			-2.985
254305.000			-23.879			-2.985
254404.000			-23.878			-2.985
254504.000			-23.877			-2.985
254605.000			-23.877			-2.985
254703.000			-23.877			-2.985
254804.000			-23.877			-2.985
254905.000			-23.876			-2.985
255004.000			-23.876			-2.984
255104.000			-23.876			-2.984
255205.000			-23.875			-2.984
255304.000			-23.874			-2.984
255404.000			-23.875			-2.984
255505.000			-23.875			-2.984
255603.000			-23.874			-2.984
255704.000			-23.875			-2.984
255805.000			-23.875			-2.984
255904.000			-23.875			-2.984
256004.000			-23.874			-2.984
256104.000			-23.873			-2.984
256204.000			-23.873			-2.984
256305.000			-23.873			-2.984
256404.000			-23.873			-2.984
256503.000			-23.872			-2.984
256605.000			-23.872			-2.984
256704.000			-23.873			-2.984
256804.000			-23.872			-2.984
256905.000			-23.872			-2.984
257004.000			-23.871			-2.984
257104.000			-23.870			-2.984
257205.000			-23.871			-2.984
257304.000			-23.871			-2.984
257403.000			-23.872			-2.984
257505.000			-23.871			-2.984
257604.000			-23.870			-2.984
257704.000			-23.870			-2.984
257805.000			-23.870			-2.984
257904.000			-23.869			-2.984
258004.000			-23.869			-2.984
258105.000			-23.869			-2.984
258204.000			-23.869			-2.984
258303.000			-23.868			-2.984
258405.000			-23.869			-2.984
258503.000			-23.869			-2.984
258604.000			-23.867			-2.983
258705.000			-23.867			-2.983
258804.000			-23.867			-2.983
258904.000			-23.866			-2.983
259005.000			-23.866			-2.983
259104.000			-23.866			-2.983
259204.000			-23.866			-2.983
259305.000			-23.866			-2.983
259403.000			-23.866			-2.983
259505.000			-23.866			-2.983
259604.000			-23.865			-2.983
259704.000			-23.866			-2.983
259805.000			-23.866			-2.983
259904.000			-23.866			-2.983
260004.000			-23.865			-2.983
260105.000			-23.864			-2.983
260204.000			-23.864			-2.983
260303.000			-23.863			-2.983
260405.000			-23.863			-2.983
260503.000			-23.863			-2.983
260604.000			-23.864			-2.983
260705.000			-23.864			-2.983
260804.000			-23.862			-2.983
260904.000			-23.862			-2.983
261005.000			-23.862			-2.983
261104.000			-23.862			-2.983
261203.000			-23.862			-2.983
261305.000			-23.862			-2.983
261403.000			-23.861			-2.983
261504.000			-23.861			-2.983
261605.000			-23.862			-2.983
261704.000			-23.860			-2.983
261804.000			-23.859			-2.982
261905.000			-23.859			-2.982
262004.000			-23.861			-2.983
262103.000			-23.861			-2.983
262205.000			-23.859			-2.982
262303.000			-23.859			-2.982
262404.000			-23.858			-2.982
262505.000			-23.858			-2.982
262604.000			-23.858			-2.982
262705.000			-23.858			-2.982
262804.000			-23.858			-2.982
262904.000			-23.856			-2.982
263005.000			-23.857			-2.982
263104.000			-23.857			-2.982
263203.000			-23.858			-2.982
263305.000			-23.858			-2.982
263404.000			-23.858			-2.982
263504.000			-23.857			-2.982
263605.000			-23.856			-2.982
263704.000			-23.857			-2.982
263804.000			-23.855			-2.982
263905.000			-23.855			-2.982
264004.000			-23.856			-2.982
264103.000			-23.855			-2.982
264205.000			-23.854			-2.982
264304.000			-23.855			-2.982
264404.000			-23.855			-2.982
264505.000			-23.854			-2.982
264604.000			-23.855			-2.982
264704.000			-23.854			-2.982
264805.000			-23.853			-2.982
264904.000			-23.854			-2.982
265003.000			-23.853			-2.982
265105.000			-23.853			-2.982
265204.000			-23.853			-2.982
265304.000			-23.854			-2.982
265405.000			-23.854			-2.982
265504.000			-23.853			-2.982
265604.000			-23.852			-2.981
265704.000			-23.852			-2.981
265804.000			-23.853			-2.982
265903.000			-23.850			-2.981
266004.000			-23.850			-2.981
266103.000			-23.851			-2.981
266205.000			-23.851			-2.981
266304.000			-23.851			-2.981
266404.000			-23.851			-2.981
266505.000			-23.850			-2.981
266604.000			-23.850			-2.981
266704.000			-23.849			-2.981
266804.000			-23.849			-2.981
266904.000			-23.849			-2.981
267003.000			-23.849			-2.981
267105.000			-23.849			-2.981
267204.000			-23.848			-2.981
267304.000			-23.848			-2.981
267405.000			-23.848			-2.981
267504.000			-23.848			-2.981
267604.000			-23.848			-2.981
267704.000			-23.848			-2.981
267804.000			-23.847			-2.981
267903.000			-23.847			-2.981
268005.000			-23.848			-2.981
268104.000			-23.847			-2.981
268204.000			-23.847			-2.981
268305.000			-23.847			-2.981
268404.000			-23.847			-2.981
268504.000			-23.846			-2.981
268605.000			-23.845			-2.981
268704.000			-23.846			-2.981
268803.000			-23.845			-2.981
268905.000			-23.845			-2.981
269004.000			-23.844			-2.981
269105.000			-23.844			-2.980
269204.000			-23.845			-2.981
269304.000			-23.844			-2.981
269405.000			-23.844			-2.980
269504.000			-23.844			-2.981
269604.000			-23.844			-2.981
269704.000			-23.845			-2.981
269804.000			-23.843			-2.980
269904.000			-23.843			-2.980
270005.000			-23.843			-2.980
270104.000			-23.843			-2.980
270204.000			-23.843			-2.980
270305.000			-23.841			-2.980
270404.000			-23.842			-2.980
270504.000			-23.842			-2.980
270604.000			-23.841			-2.980
270704.000			-23.841			-2.980
270804.000			-23.841			-2.980
270905.000			-23.840			-2.980
271004.000			-23.840			-2.980
271104.000			-23.841			-2.980
271205.000			-23.840			-2.980
271304.000			-23.839			-2.980
271404.000			-23.840			-2.980
271504.000			-23.840			-2.980
271604.000			-23.839			-2.980
271704.000			-23.840			-2.980
271805.000			-23.839			-2.980
271904.000			-23.839			-2.980
272004.000			-23.839			-2.980
272105.000			-23.839			-2.980
272204.000			-23.838			-2.980
272305.000			-23.838			-2.980
272403.000			-23.837			-2.980
272504.000			-23.838			-2.980
272605.000			-23.838			-2.980
272704.000			-23.838			-2.980
272804.000			-23.837			-2.980
272905.000			-23.836			-2.980
273004.000			-23.837			-2.980
273104.000			-23.837			-2.980
273205.000			-23.835			-2.979
273303.000			-23.835			-2.979
273404.000			-23.836			-2.979
273505.000			-23.835			-2.979
273604.000			-23.835			-2.979
273704.000			-23.835			-2.979
273805.000			-23.834			-2.979
273904.000			-23.834			-2.979
274004.000			-23.835			-2.979
274105.000			-23.834			-2.979
274203.000			-23.835			-2.979
274304.000			-23.834			-2.979
274404.000			-23.833			-2.979
274504.000			-23.833			-2.979
274604.000			-23.833			-2.979
274705.000			-23.833			-2.979
274804.000			-23.833			-2.979
274904.000			-23.833			-2.979
275005.000			-23.833			-2.979
275103.000			-23.832			-2.979
275204.000			-23.831			-2.979
275303.000			-23.831			-2.979
275404.000			-23.832			-2.979
275505.000			-23.831			-2.979
275604.000			-23.831			-2.979
275704.000			-23.830			-2.979
275805.000			-23.831			-2.979
275904.000			-23.830			-2.979
276003.000			-23.830			-2.979
276105.000			-23.829			-2.979
276203.000			-23.829			-2.979
276304.000			-23.829			-2.979
276405.000			-23.829			-2.979
276504.000			-23.829			-2.979
276604.000			-23.828			-2.979
276705.000			-23.828			-2.979
276804.000			-23.828			-2.979
276903.000			-23.828			-2.978
277005.000			-23.829			-2.979
277103.000			-23.829			-2.979
277204.000			-23.829			-2.979
277305.000			-23.827			-2.978
277404.000			-23.826			-2.978
277504.000			-23.828			-2.978
277605.000			-23.828			-2.978
277704.000			-23.827			-2.978
277804.000			-23.827			-2.978
277905.000			-23.827			-2.978
278003.000			-23.826			-2.978
278104.000			-23.826			-2.978
278205.000			-23.825			-2.978
278304.000			-23.826			-2.978
278404.000			-23.825			-2.978
278504.000			-23.824			-2.978
278604.000			-23.824			-2.978
278705.000			-23.825			-2.978
278804.000			-23.824			-2.978
278903.000			-23.823			-2.978
279005.000			-23.824			-2.978
279104.000			-23.823			-2.978
279204.000			-23.823			-2.978
279305.000			-23.824			-2.978
279404.000			-23.824			-2.978
279504.000			-23.823			-2.978
279605.000			-23.822			-2.978
279704.000			-23.822			-2.978
279803.000			-23.822			-2.978
279905.000			-23.821			-2.978
280004.000			-23.821			-2.978
280104.000			-23.822			-2.978
280205.000			-23.821			-2.978
280304.000			-23.821			-2.978
280404.000			-23.820			-2.978
280505.000			-23.820			-2.977
280604.000			-23.819			-2.977
280703.000			-23.819			-2.977
280805.000			-23.819			-2.977
280904.000			-23.820			-2.977
281004.000			-23.819			-2.977
281105.000			-23.820			-2.977
281204.000			-23.819			-2.977
281304.000			-23.818			-2.977
281405.000			-23.819			-2.977
281504.000			-23.818			-2.977
281603.000			-23.818			-2.977
281705.000			-23.819			-2.977
281804.000			-23.818			-2.977
281905.000			-23.818			-2.977
282004.000			-23.818			-2.977
282104.000			-23.818			-2.977
282205.000			-23.817			-2.977
282304.000			-23.817			-2.977
282404.000			-23.818			-2.977
282504.000			-23.817			-2.977
282604.000			-23.816			-2.977
282704.000			-23.816			-2.977
282805.000			-23.816			-2.977
282904.000			-23.815			-2.977
283004.000			-23.815			-2.977
283105.000			-23.816			-2.977
283204.000			-23.815			-2.977
283304.000			-23.815			-2.977
283404.000			-23.815			-2.977
283504.000			-23.814			-2.977
283604.000			-23.814			-2.977
283705.000			-23.814			-2.977
283804.000			-23.813			-2.977
283904.000			-23.814			-2.977
284005.000			-23.813			-2.977
284104.000			-23.813			-2.977
284204.000			-23.813			-2.977
284304.000			-23.813			-2.977
284404.000			-23.814			-2.977
284504.000			-23.813			-2.977
284605.000			-23.812			-2.976
284704.000			-23.812			-2.977
284804.000			-23.812			-2.977
284905.000			-23.811			-2.976
285004.000			-23.811			-2.976
285105.000			-23.811			-2.976
285203.000			-23.811			-2.976
285304.000			-23.811			-2.976
285405.000			-23.811			-2.976
285504.000			-23.811			-2.976
285604.000			-23.810			-2.976
285705.000			-23.811			-2.976
285804.000			-23.810			-2.976
285904.000			-23.809			-2.976
286005.000			-23.809			-2.976
286103.000			-23.808			-2.976
286204.000			-23.809			-2.976
286305.000			-23.808			-2.976
286404.000			-23.808			-2.976
286504.000			-23.808			-2.976
286605.000			-23.808			-2.976
286704.000			-23.808			-2.976
286804.000			-23.807			-2.976
286905.000			-23.808			-2.976
287003.000			-23.808			-2.976
287104.000			-23.808			-2.976
287205.000			-23.807			-2.976
287304.000			-23.807			-2.976
287404.000			-23.806			-2.976
287505.000			-23.807			-2.976
287604.000			-23.807			-2.976
287704.000			-23.807			-2.976
287805.000			-23.807			-2.976
287903.000			-23.808			-2.976
288004.000			-23.807			-2.976
288105.000			-23.806			-2.976
288204.000			-23.805			-2.976
288305.000			-23.805			-2.976
288404.000			-23.804			-2.976
288504.000			-23.805			-2.976
288605.000			-23.806			-2.976
288704.000			-23.805			-2.976
288803.000			-23.805			-2.976
288905.000			-23.804			-2.975
289004.000			-23.804			-2.975
289104.000			-23.804			-2.975
289205.000			-23.803			-2.975
289304.000			-23.803			-2.975
289404.000			-23.803			-2.975
289505.000			-23.802			-2.975
289604.000			-23.802			-2.975
289703.000			-23.802			-2.975
289805.000			-23.801			-2.975
289904.000			-23.801			-2.975
290004.000			-23.801			-2.975
290105.000			-23.801			-2.975
290204.000			-23.801			-2.975
290304.000			-23.800			-2.975
290405.000			-23.800			-2.975
290504.000			-23.800			-2.975
290603.000			-23.801			-2.975
290705.000			-23.801			-2.975
290804.000			-23.800			-2.975
290904.000			-23.799			-2.975
291005.000			-23.800			-2.975
291104.000			-23.799			-2.975
291204.000			-23.798			-2.975
291304.000			-23.799			-2.975
291404.000			-23.799			-2.975
291503.000			-23.799			-2.975
291604.000			-23.798			-2.975
291704.000			-23.798			-2.975
291805.000			-23.798			-2.975
291904.000			-23.796			-2.974
292004.000			-23.796			-2.975
292105.000			-23.797			-2.975
292204.000			-23.798			-2.975
292304.000			-23.797			-2.975
292404.000			-23.797			-2.975
292504.000			-23.796			-2.975
292603.000			-23.797			-2.975
292705.000			-23.797			-2.975
292804.000			-23.796			-2.974
292904.000			-23.795			-2.974
293005.000			-23.795			-2.974
293104.000			-23.796			-2.974
293204.000			-23.796			-2.974
293304.000			-23.796			-2.974
293404.000			-23.796			-2.974
293503.000			-23.795			-2.974
293605.000			-23.795			-2.974
293704.000			-23.794			-2.974
293804.000			-23.795			-2.974
293905.000			-23.795			-2.974
294004.000			-23.793			-2.974
294104.000			-23.793			-2.974
294205.000			-23.793			-2.974
294304.000			-23.792			-2.974
294403.000			-23.792			-2.974
294505.000			-23.792			-2.974
294604.000			-23.793			-2.974
294705.000			-23.793			-2.974
294804.000			-23.792			-2.974
294904.000			-23.792			-2.974
295005.000			-23.791			-2.974
295104.000			-23.790			-2.974
295204.000			-23.791			-2.974
295304.000			-23.790			-2.974
295404.000			-23.790			-2.974
295503.000			-23.791			-2.974
295605.000			-23.789			-2.974
295704.000			-23.789			-2.974
295804.000			-23.789			-2.974
295905.000			-23.789			-2.974
296004.000			-23.790			-2.974
296104.000			-23.789			-2.974
296205.000			-23.790			-2.974
296304.000			-23.791			-2.974
296403.000			-23.790			-2.974
296505.000			-23.789			-2.974
296604.000			-23.789			-2.974
296704.000			-23.788			-2.974
296805.000			-23.788			-2.974
296904.000			-23.787			-2.973
297004.000			-23.787			-2.973
297105.000			-23.787			-2.973
297204.000			-23.788			-2.973
297303.000			-23.787			-2.973
297405.000			-23.787			-2.973
297503.000			-23.786			-2.973
297604.000			-23.787			-2.973
297705.000			-23.786			-2.973
297804.000			-23.786			-2.973
297905.000			-23.786			-2.973
298004.000			-23.787			-2.973
298104.000			-23.786			-2.973
298205.000			-23.785			-2.973
298304.000			-23.785			-2.973
298403.000			-23.786			-2.973
298505.000			-23.785			-2.973
298604.000			-23.784			-2.973
298704.000			-23.784			-2.973
298805.000			-23.782			-2.973
298904.000			-23.782			-2.973
299004.000			-23.783			-2.973
299105.000			-23.784			-2.973
299204.000			-23.784			-2.973
299303.000			-23.783			-2.973
299405.000			-23.782			-2.973
299503.000			-23.783			-2.973
299604.000			-23.783			-2.973
299705.000			-23.783			-2.973
299804.000			-23.783			-2.973
299904.000			-23.782			-2.973
