# Acquired on 26/01/2024 10:35:39 
# SPIDER: Creep_-3mm_HM077x145x38AA-2
# CREEP MEASUREMENT

# time [ms]		force [N]		stiffness [N/mm]
1.000			12.960			-4.320
104.000			13.908			-4.636
205.000			14.207			-4.736
304.000			14.203			-4.734
403.000			14.136			-4.712
505.000			14.113			-4.704
604.000			14.092			-4.697
704.000			14.075			-4.692
805.000			14.060			-4.687
903.000			14.046			-4.682
1004.000			14.033			-4.678
1105.000			14.010			-4.670
1204.000			14.000			-4.667
1304.000			13.989			-4.663
1404.000			13.979			-4.660
1504.000			13.972			-4.657
1603.000			13.964			-4.655
1704.000			13.955			-4.652
1804.000			13.946			-4.649
1905.000			13.933			-4.644
2004.000			13.926			-4.642
2103.000			13.921			-4.640
2205.000			13.915			-4.638
2304.000			13.908			-4.636
2404.000			13.903			-4.634
2505.000			13.897			-4.632
2604.000			13.885			-4.628
2704.000			13.881			-4.627
2804.000			13.876			-4.625
2904.000			13.871			-4.624
3004.000			13.867			-4.622
3105.000			13.862			-4.621
3204.000			13.857			-4.619
3304.000			13.850			-4.617
3405.000			13.845			-4.615
3504.000			13.841			-4.614
3604.000			13.837			-4.612
3705.000			13.832			-4.611
3804.000			13.829			-4.610
3904.000			13.826			-4.609
4004.000			13.823			-4.608
4104.000			13.815			-4.605
4204.000			13.813			-4.604
4305.000			13.809			-4.603
4404.000			13.805			-4.602
4504.000			13.802			-4.601
4605.000			13.799			-4.600
4703.000			13.796			-4.599
4805.000			13.789			-4.596
4904.000			13.786			-4.595
5004.000			13.784			-4.595
5105.000			13.781			-4.594
5203.000			13.778			-4.593
5304.000			13.776			-4.592
5405.000			13.773			-4.591
5504.000			13.768			-4.589
5604.000			13.765			-4.588
5705.000			13.762			-4.587
5804.000			13.759			-4.586
5903.000			13.758			-4.586
6005.000			13.756			-4.585
6104.000			13.752			-4.584
6204.000			13.749			-4.583
6305.000			13.745			-4.582
6404.000			13.743			-4.581
6504.000			13.741			-4.580
6604.000			13.740			-4.580
6704.000			13.737			-4.579
6804.000			13.734			-4.578
6905.000			13.731			-4.577
7004.000			13.728			-4.576
7104.000			13.725			-4.575
7205.000			13.722			-4.574
7304.000			13.722			-4.574
7404.000			13.719			-4.573
7505.000			13.717			-4.572
7604.000			13.716			-4.572
7704.000			13.711			-4.570
7803.000			13.709			-4.570
7904.000			13.708			-4.569
8005.000			13.706			-4.569
8104.000			13.705			-4.568
8204.000			13.702			-4.567
8305.000			13.699			-4.566
8404.000			13.698			-4.566
8503.000			13.695			-4.565
8605.000			13.693			-4.564
8704.000			13.691			-4.564
8804.000			13.690			-4.563
8905.000			13.688			-4.563
9004.000			13.687			-4.562
9104.000			13.683			-4.561
9204.000			13.681			-4.560
9304.000			13.679			-4.560
9404.000			13.677			-4.559
9505.000			13.676			-4.559
9604.000			13.675			-4.558
9703.000			13.674			-4.558
9805.000			13.672			-4.557
9904.000			13.669			-4.556
10004.000			13.668			-4.556
10105.000			13.666			-4.555
10204.000			13.664			-4.555
10304.000			13.662			-4.554
10404.000			13.661			-4.554
10504.000			13.659			-4.553
10604.000			13.656			-4.552
10705.000			13.655			-4.552
10804.000			13.654			-4.551
10904.000			13.652			-4.551
11005.000			13.651			-4.550
11103.000			13.650			-4.550
11205.000			13.649			-4.550
11304.000			13.647			-4.549
11404.000			13.644			-4.548
11505.000			13.643			-4.548
11604.000			13.642			-4.547
11704.000			13.641			-4.547
11804.000			13.640			-4.547
11904.000			13.638			-4.546
12004.000			13.636			-4.545
12105.000			13.634			-4.545
12204.000			13.633			-4.544
12304.000			13.631			-4.544
12405.000			13.630			-4.543
12503.000			13.630			-4.543
12604.000			13.629			-4.543
12705.000			13.627			-4.542
12804.000			13.625			-4.542
12904.000			13.623			-4.541
13004.000			13.622			-4.541
13104.000			13.621			-4.540
13204.000			13.619			-4.540
13305.000			13.618			-4.539
13404.000			13.617			-4.539
13504.000			13.616			-4.539
13605.000			13.614			-4.538
13703.000			13.613			-4.538
13804.000			13.611			-4.537
13905.000			13.610			-4.537
14004.000			13.609			-4.536
14104.000			13.607			-4.536
14204.000			13.606			-4.535
14304.000			13.606			-4.535
14403.000			13.604			-4.535
14504.000			13.603			-4.534
14604.000			13.601			-4.534
14705.000			13.599			-4.533
14804.000			13.598			-4.533
14904.000			13.599			-4.533
15005.000			13.597			-4.532
15103.000			13.596			-4.532
15204.000			13.594			-4.531
15305.000			13.593			-4.531
15404.000			13.592			-4.531
15504.000			13.590			-4.530
15605.000			13.589			-4.530
15704.000			13.588			-4.529
15803.000			13.587			-4.529
15905.000			13.587			-4.529
16004.000			13.586			-4.529
16104.000			13.584			-4.528
16205.000			13.582			-4.527
16304.000			13.581			-4.527
16404.000			13.581			-4.527
16504.000			13.578			-4.526
16604.000			13.578			-4.526
16704.000			13.578			-4.526
16805.000			13.577			-4.526
16904.000			13.576			-4.525
17004.000			13.574			-4.525
17105.000			13.573			-4.524
17203.000			13.571			-4.524
17304.000			13.571			-4.524
17405.000			13.570			-4.523
17504.000			13.569			-4.523
17605.000			13.568			-4.523
17704.000			13.569			-4.523
17804.000			13.568			-4.523
17904.000			13.566			-4.522
18004.000			13.564			-4.521
18104.000			13.562			-4.521
18205.000			13.561			-4.520
18304.000			13.561			-4.520
18403.000			13.560			-4.520
18505.000			13.559			-4.520
18604.000			13.559			-4.520
18704.000			13.557			-4.519
18805.000			13.556			-4.519
18904.000			13.556			-4.519
19004.000			13.554			-4.518
19104.000			13.553			-4.518
19204.000			13.552			-4.517
19304.000			13.551			-4.517
19405.000			13.550			-4.517
19504.000			13.550			-4.517
19604.000			13.549			-4.516
19705.000			13.548			-4.516
19803.000			13.546			-4.515
19904.000			13.546			-4.515
20005.000			13.545			-4.515
20104.000			13.542			-4.514
20204.000			13.542			-4.514
20305.000			13.542			-4.514
20404.000			13.541			-4.514
20503.000			13.539			-4.513
20605.000			13.539			-4.513
20704.000			13.539			-4.513
20805.000			13.539			-4.513
20904.000			13.536			-4.512
21004.000			13.535			-4.512
21105.000			13.533			-4.511
21203.000			13.533			-4.511
21304.000			13.533			-4.511
21405.000			13.532			-4.511
21504.000			13.532			-4.511
21604.000			13.530			-4.510
21704.000			13.530			-4.510
21804.000			13.529			-4.510
21904.000			13.529			-4.510
22005.000			13.528			-4.509
22104.000			13.527			-4.509
22204.000			13.526			-4.509
22305.000			13.525			-4.508
22403.000			13.523			-4.508
22504.000			13.523			-4.508
22605.000			13.522			-4.507
22704.000			13.521			-4.507
22804.000			13.521			-4.507
22905.000			13.522			-4.507
23004.000			13.520			-4.507
23103.000			13.519			-4.506
23205.000			13.517			-4.506
23304.000			13.517			-4.506
23404.000			13.516			-4.505
23505.000			13.515			-4.505
23603.000			13.515			-4.505
23704.000			13.514			-4.505
23805.000			13.512			-4.504
23904.000			13.512			-4.504
24005.000			13.512			-4.504
24104.000			13.510			-4.503
24204.000			13.510			-4.503
24304.000			13.508			-4.503
24404.000			13.508			-4.503
24504.000			13.507			-4.502
24605.000			13.506			-4.502
24704.000			13.506			-4.502
24804.000			13.505			-4.502
24905.000			13.504			-4.501
25003.000			13.503			-4.501
25104.000			13.502			-4.501
25205.000			13.502			-4.501
25304.000			13.501			-4.500
25404.000			13.501			-4.500
25504.000			13.500			-4.500
25604.000			13.499			-4.500
25703.000			13.498			-4.499
25805.000			13.498			-4.499
25904.000			13.497			-4.499
26004.000			13.495			-4.498
26105.000			13.496			-4.499
26204.000			13.494			-4.498
26304.000			13.494			-4.498
26404.000			13.494			-4.498
26504.000			13.492			-4.497
26604.000			13.491			-4.497
26705.000			13.490			-4.497
26804.000			13.490			-4.497
26903.000			13.489			-4.496
27005.000			13.489			-4.496
27104.000			13.489			-4.496
27205.000			13.488			-4.496
27304.000			13.487			-4.496
27404.000			13.485			-4.495
27505.000			13.484			-4.495
27604.000			13.484			-4.495
27704.000			13.484			-4.495
27804.000			13.483			-4.494
27904.000			13.482			-4.494
28004.000			13.481			-4.494
28105.000			13.482			-4.494
28204.000			13.480			-4.493
28303.000			13.479			-4.493
28405.000			13.479			-4.493
28504.000			13.479			-4.493
28604.000			13.477			-4.492
28705.000			13.477			-4.492
28804.000			13.478			-4.493
28904.000			13.477			-4.492
29004.000			13.475			-4.492
29104.000			13.474			-4.491
29203.000			13.474			-4.491
29305.000			13.473			-4.491
29404.000			13.473			-4.491
29504.000			13.472			-4.491
29605.000			13.471			-4.490
29703.000			13.471			-4.490
29804.000			13.470			-4.490
29905.000			13.470			-4.490
30004.000			13.469			-4.490
30104.000			13.468			-4.489
30204.000			13.467			-4.489
30304.000			13.466			-4.489
30403.000			13.466			-4.489
30504.000			13.465			-4.488
30604.000			13.465			-4.488
30705.000			13.465			-4.488
30804.000			13.464			-4.488
30904.000			13.463			-4.488
31005.000			13.462			-4.487
31103.000			13.461			-4.487
31204.000			13.460			-4.487
31305.000			13.460			-4.487
31404.000			13.460			-4.487
31504.000			13.458			-4.486
31605.000			13.458			-4.486
31704.000			13.459			-4.486
31803.000			13.458			-4.486
31905.000			13.457			-4.486
32004.000			13.456			-4.485
32104.000			13.455			-4.485
32205.000			13.455			-4.485
32303.000			13.455			-4.485
32404.000			13.455			-4.485
32505.000			13.454			-4.485
32604.000			13.453			-4.484
32704.000			13.452			-4.484
32805.000			13.452			-4.484
32904.000			13.452			-4.484
33003.000			13.451			-4.484
33105.000			13.451			-4.484
33204.000			13.450			-4.483
33304.000			13.447			-4.482
33405.000			13.447			-4.482
33504.000			13.448			-4.483
33605.000			13.448			-4.483
33703.000			13.446			-4.482
33804.000			13.446			-4.482
33905.000			13.445			-4.482
34004.000			13.444			-4.481
34104.000			13.444			-4.481
34204.000			13.443			-4.481
34304.000			13.443			-4.481
34404.000			13.442			-4.481
34505.000			13.443			-4.481
34604.000			13.442			-4.481
34704.000			13.439			-4.480
34805.000			13.440			-4.480
34903.000			13.439			-4.480
35004.000			13.439			-4.480
35105.000			13.438			-4.479
35204.000			13.438			-4.479
35304.000			13.439			-4.480
35405.000			13.437			-4.479
35504.000			13.436			-4.479
35603.000			13.436			-4.479
35705.000			13.435			-4.478
35804.000			13.435			-4.478
35904.000			13.434			-4.478
36005.000			13.433			-4.478
36104.000			13.432			-4.477
36204.000			13.431			-4.477
36304.000			13.431			-4.477
36404.000			13.431			-4.477
36504.000			13.430			-4.477
36604.000			13.430			-4.477
36704.000			13.430			-4.477
36803.000			13.430			-4.477
36904.000			13.429			-4.476
37003.000			13.428			-4.476
37105.000			13.428			-4.476
37204.000			13.427			-4.476
37304.000			13.426			-4.475
37405.000			13.427			-4.476
37503.000			13.426			-4.475
37604.000			13.425			-4.475
37705.000			13.424			-4.475
37804.000			13.424			-4.475
37904.000			13.424			-4.475
38005.000			13.423			-4.474
38104.000			13.423			-4.474
38203.000			13.422			-4.474
38305.000			13.422			-4.474
38404.000			13.421			-4.474
38504.000			13.421			-4.474
38605.000			13.421			-4.474
38704.000			13.420			-4.473
38804.000			13.419			-4.473
38904.000			13.419			-4.473
39004.000			13.419			-4.473
39104.000			13.417			-4.472
39205.000			13.417			-4.472
39304.000			13.417			-4.472
39403.000			13.417			-4.472
39505.000			13.416			-4.472
39604.000			13.415			-4.472
39704.000			13.414			-4.471
39805.000			13.414			-4.471
39904.000			13.414			-4.471
40005.000			13.412			-4.471
40103.000			13.413			-4.471
40204.000			13.413			-4.471
40305.000			13.412			-4.471
40404.000			13.411			-4.470
40504.000			13.412			-4.471
40605.000			13.410			-4.470
40704.000			13.410			-4.470
40803.000			13.409			-4.470
40905.000			13.409			-4.470
41004.000			13.408			-4.469
41104.000			13.408			-4.469
41205.000			13.408			-4.469
41304.000			13.406			-4.469
41404.000			13.406			-4.469
41504.000			13.406			-4.469
41604.000			13.406			-4.469
41704.000			13.406			-4.469
41805.000			13.405			-4.468
41904.000			13.405			-4.468
42003.000			13.404			-4.468
42105.000			13.403			-4.468
42204.000			13.402			-4.467
42304.000			13.402			-4.467
42405.000			13.401			-4.467
42504.000			13.401			-4.467
42604.000			13.401			-4.467
42704.000			13.401			-4.467
42804.000			13.401			-4.467
42904.000			13.400			-4.467
43004.000			13.399			-4.466
43104.000			13.399			-4.466
43205.000			13.399			-4.466
43304.000			13.398			-4.466
43403.000			13.397			-4.466
43505.000			13.396			-4.465
43604.000			13.396			-4.465
43704.000			13.395			-4.465
43805.000			13.396			-4.465
43904.000			13.395			-4.465
44004.000			13.395			-4.465
44104.000			13.395			-4.465
44204.000			13.393			-4.464
44304.000			13.393			-4.464
44405.000			13.393			-4.464
44504.000			13.392			-4.464
44603.000			13.393			-4.464
44705.000			13.392			-4.464
44804.000			13.391			-4.464
44904.000			13.390			-4.463
45005.000			13.390			-4.463
45104.000			13.390			-4.463
45204.000			13.389			-4.463
45304.000			13.389			-4.463
45404.000			13.389			-4.463
45504.000			13.389			-4.463
45605.000			13.388			-4.463
45704.000			13.387			-4.462
45804.000			13.387			-4.462
45905.000			13.386			-4.462
46003.000			13.386			-4.462
46104.000			13.386			-4.462
46205.000			13.385			-4.462
46304.000			13.384			-4.461
46405.000			13.384			-4.461
46504.000			13.384			-4.461
46604.000			13.384			-4.461
46704.000			13.383			-4.461
46804.000			13.382			-4.461
46904.000			13.382			-4.461
47005.000			13.381			-4.460
47104.000			13.381			-4.460
47204.000			13.381			-4.460
47305.000			13.380			-4.460
47403.000			13.380			-4.460
47504.000			13.379			-4.460
47605.000			13.378			-4.459
47704.000			13.378			-4.459
47804.000			13.378			-4.459
47905.000			13.378			-4.459
48004.000			13.377			-4.459
48103.000			13.377			-4.459
48205.000			13.376			-4.459
48304.000			13.375			-4.458
48404.000			13.375			-4.458
48505.000			13.375			-4.458
48604.000			13.375			-4.458
48704.000			13.373			-4.458
48804.000			13.373			-4.458
48904.000			13.373			-4.458
49004.000			13.372			-4.457
49105.000			13.373			-4.458
49204.000			13.371			-4.457
49304.000			13.371			-4.457
49405.000			13.371			-4.457
49503.000			13.371			-4.457
49605.000			13.372			-4.457
49704.000			13.371			-4.457
49804.000			13.369			-4.456
49905.000			13.369			-4.456
50004.000			13.369			-4.456
50104.000			13.368			-4.456
50204.000			13.368			-4.456
50304.000			13.367			-4.456
50404.000			13.367			-4.456
50505.000			13.367			-4.456
50604.000			13.366			-4.455
50704.000			13.366			-4.455
50805.000			13.366			-4.455
50903.000			13.365			-4.455
51004.000			13.364			-4.455
51105.000			13.364			-4.455
51204.000			13.364			-4.455
51304.000			13.363			-4.454
51404.000			13.364			-4.455
51504.000			13.364			-4.455
51604.000			13.364			-4.455
51705.000			13.362			-4.454
51804.000			13.362			-4.454
51904.000			13.363			-4.454
52005.000			13.361			-4.454
52103.000			13.361			-4.454
52204.000			13.361			-4.454
52305.000			13.361			-4.454
52404.000			13.360			-4.453
52504.000			13.359			-4.453
52604.000			13.360			-4.453
52704.000			13.359			-4.453
52803.000			13.358			-4.453
52904.000			13.358			-4.453
53004.000			13.357			-4.452
53105.000			13.357			-4.452
53204.000			13.357			-4.452
53304.000			13.356			-4.452
53405.000			13.356			-4.452
53504.000			13.356			-4.452
53604.000			13.356			-4.452
53705.000			13.355			-4.452
53804.000			13.354			-4.451
53904.000			13.355			-4.452
54004.000			13.355			-4.452
54104.000			13.354			-4.451
54203.000			13.354			-4.451
54305.000			13.354			-4.451
54404.000			13.352			-4.451
54504.000			13.353			-4.451
54605.000			13.352			-4.451
54703.000			13.352			-4.451
54804.000			13.351			-4.450
54905.000			13.350			-4.450
55004.000			13.350			-4.450
55104.000			13.349			-4.450
55205.000			13.350			-4.450
55304.000			13.349			-4.450
55403.000			13.348			-4.449
55505.000			13.349			-4.450
55604.000			13.349			-4.450
55704.000			13.347			-4.449
55805.000			13.347			-4.449
55904.000			13.346			-4.449
56005.000			13.346			-4.449
56103.000			13.346			-4.449
56204.000			13.346			-4.449
56305.000			13.346			-4.449
56404.000			13.345			-4.448
56504.000			13.346			-4.449
56605.000			13.343			-4.448
56704.000			13.344			-4.448
56803.000			13.344			-4.448
56905.000			13.344			-4.448
57004.000			13.344			-4.448
57104.000			13.344			-4.448
57205.000			13.342			-4.447
57304.000			13.342			-4.447
57404.000			13.342			-4.447
57504.000			13.341			-4.447
57604.000			13.341			-4.447
57704.000			13.341			-4.447
57805.000			13.340			-4.447
57904.000			13.339			-4.446
58003.000			13.339			-4.446
58105.000			13.338			-4.446
58204.000			13.339			-4.446
58304.000			13.340			-4.447
58405.000			13.338			-4.446
58504.000			13.338			-4.446
58604.000			13.338			-4.446
58704.000			13.338			-4.446
58804.000			13.336			-4.445
58904.000			13.337			-4.446
59004.000			13.336			-4.445
59104.000			13.336			-4.445
59205.000			13.335			-4.445
59304.000			13.334			-4.445
59403.000			13.335			-4.445
59505.000			13.334			-4.445
59604.000			13.334			-4.445
59704.000			13.333			-4.444
59805.000			13.333			-4.444
59904.000			13.334			-4.445
60004.000			13.333			-4.444
60104.000			13.333			-4.444
60204.000			13.331			-4.444
60304.000			13.331			-4.444
60405.000			13.332			-4.444
60504.000			13.331			-4.444
60604.000			13.332			-4.444
60705.000			13.331			-4.444
60803.000			13.329			-4.443
60904.000			13.329			-4.443
61005.000			13.330			-4.443
61104.000			13.330			-4.443
61204.000			13.329			-4.443
61305.000			13.328			-4.443
61404.000			13.329			-4.443
61503.000			13.329			-4.443
61605.000			13.328			-4.443
61704.000			13.326			-4.442
61804.000			13.327			-4.442
61905.000			13.327			-4.442
62003.000			13.327			-4.442
62104.000			13.326			-4.442
62205.000			13.326			-4.442
62304.000			13.325			-4.442
62405.000			13.324			-4.441
62504.000			13.324			-4.441
62604.000			13.324			-4.441
62704.000			13.323			-4.441
62804.000			13.322			-4.441
62904.000			13.323			-4.441
63005.000			13.324			-4.441
63104.000			13.323			-4.441
63204.000			13.322			-4.441
63305.000			13.322			-4.441
63403.000			13.322			-4.441
63504.000			13.321			-4.440
63605.000			13.321			-4.440
63704.000			13.319			-4.440
63804.000			13.320			-4.440
63904.000			13.320			-4.440
64004.000			13.321			-4.440
64104.000			13.320			-4.440
64205.000			13.319			-4.440
64304.000			13.318			-4.439
64404.000			13.319			-4.440
64505.000			13.318			-4.439
64603.000			13.317			-4.439
64704.000			13.317			-4.439
64805.000			13.316			-4.439
64904.000			13.316			-4.439
65004.000			13.316			-4.439
65105.000			13.316			-4.439
65204.000			13.316			-4.439
65303.000			13.315			-4.438
65405.000			13.315			-4.438
65504.000			13.315			-4.438
65605.000			13.315			-4.438
65704.000			13.314			-4.438
65804.000			13.313			-4.438
65905.000			13.314			-4.438
66003.000			13.313			-4.438
66104.000			13.313			-4.438
66205.000			13.312			-4.437
66304.000			13.312			-4.437
66404.000			13.312			-4.437
66505.000			13.311			-4.437
66604.000			13.311			-4.437
66703.000			13.310			-4.437
66805.000			13.310			-4.437
66904.000			13.310			-4.437
67004.000			13.310			-4.437
67105.000			13.310			-4.437
67203.000			13.310			-4.437
67304.000			13.310			-4.437
67405.000			13.309			-4.436
67504.000			13.308			-4.436
67604.000			13.307			-4.436
67705.000			13.308			-4.436
67804.000			13.307			-4.436
67903.000			13.306			-4.435
68005.000			13.306			-4.435
68104.000			13.306			-4.435
68204.000			13.306			-4.435
68305.000			13.306			-4.435
68404.000			13.305			-4.435
68504.000			13.305			-4.435
68603.000			13.305			-4.435
68704.000			13.304			-4.435
68805.000			13.303			-4.434
68904.000			13.304			-4.435
69004.000			13.303			-4.434
69105.000			13.302			-4.434
69204.000			13.302			-4.434
69303.000			13.302			-4.434
69405.000			13.303			-4.434
69504.000			13.303			-4.434
69604.000			13.302			-4.434
69705.000			13.301			-4.434
69804.000			13.301			-4.434
69904.000			13.301			-4.434
70004.000			13.301			-4.434
70104.000			13.300			-4.433
70204.000			13.301			-4.434
70305.000			13.301			-4.434
70404.000			13.300			-4.433
70504.000			13.300			-4.433
70605.000			13.300			-4.433
70703.000			13.300			-4.433
70804.000			13.298			-4.433
70905.000			13.298			-4.433
71004.000			13.298			-4.433
71104.000			13.298			-4.433
71205.000			13.298			-4.433
71304.000			13.298			-4.433
71403.000			13.297			-4.432
71505.000			13.297			-4.432
71604.000			13.297			-4.432
71704.000			13.297			-4.432
71805.000			13.297			-4.432
71904.000			13.295			-4.432
72005.000			13.295			-4.432
72103.000			13.296			-4.432
72204.000			13.295			-4.432
72305.000			13.295			-4.432
72404.000			13.294			-4.431
72504.000			13.294			-4.431
72604.000			13.294			-4.431
72704.000			13.293			-4.431
72803.000			13.292			-4.431
72905.000			13.292			-4.431
73004.000			13.293			-4.431
73104.000			13.293			-4.431
73205.000			13.292			-4.431
73304.000			13.292			-4.431
73404.000			13.291			-4.430
73504.000			13.291			-4.430
73604.000			13.291			-4.430
73704.000			13.290			-4.430
73805.000			13.289			-4.430
73904.000			13.289			-4.430
74004.000			13.290			-4.430
74105.000			13.289			-4.430
74203.000			13.288			-4.429
74304.000			13.289			-4.430
74405.000			13.289			-4.430
74504.000			13.289			-4.430
74604.000			13.289			-4.430
74705.000			13.288			-4.429
74804.000			13.287			-4.429
74903.000			13.286			-4.429
75005.000			13.286			-4.429
75104.000			13.286			-4.429
75205.000			13.286			-4.429
75304.000			13.286			-4.429
75404.000			13.286			-4.429
75505.000			13.285			-4.428
75603.000			13.285			-4.428
75704.000			13.284			-4.428
75805.000			13.283			-4.428
75904.000			13.284			-4.428
76004.000			13.285			-4.428
76105.000			13.283			-4.428
76204.000			13.283			-4.428
76303.000			13.283			-4.428
76405.000			13.283			-4.428
76504.000			13.283			-4.428
76604.000			13.283			-4.428
76705.000			13.282			-4.427
76804.000			13.281			-4.427
76904.000			13.281			-4.427
77004.000			13.282			-4.427
77104.000			13.281			-4.427
77204.000			13.282			-4.427
77305.000			13.281			-4.427
77404.000			13.280			-4.427
77504.000			13.280			-4.427
77605.000			13.280			-4.427
77703.000			13.280			-4.427
77804.000			13.280			-4.427
77905.000			13.279			-4.426
78004.000			13.278			-4.426
78104.000			13.279			-4.426
78204.000			13.278			-4.426
78304.000			13.278			-4.426
78403.000			13.278			-4.426
78504.000			13.277			-4.426
78604.000			13.278			-4.426
78705.000			13.277			-4.426
78804.000			13.277			-4.426
78904.000			13.276			-4.425
79005.000			13.276			-4.425
79103.000			13.276			-4.425
79204.000			13.274			-4.425
79305.000			13.275			-4.425
79404.000			13.275			-4.425
79504.000			13.274			-4.425
79605.000			13.274			-4.425
79704.000			13.273			-4.424
79803.000			13.273			-4.424
79905.000			13.273			-4.424
80004.000			13.274			-4.425
80104.000			13.274			-4.425
80205.000			13.273			-4.424
80304.000			13.272			-4.424
80404.000			13.273			-4.424
80504.000			13.272			-4.424
80604.000			13.272			-4.424
80704.000			13.272			-4.424
80805.000			13.272			-4.424
80904.000			13.271			-4.424
81004.000			13.271			-4.424
81105.000			13.271			-4.424
81203.000			13.271			-4.424
81304.000			13.270			-4.423
81405.000			13.270			-4.423
81504.000			13.269			-4.423
81605.000			13.269			-4.423
81704.000			13.269			-4.423
81804.000			13.269			-4.423
81904.000			13.269			-4.423
82004.000			13.268			-4.423
82104.000			13.268			-4.423
82205.000			13.268			-4.423
82304.000			13.267			-4.422
82404.000			13.268			-4.423
82505.000			13.267			-4.422
82603.000			13.267			-4.422
82704.000			13.266			-4.422
82805.000			13.266			-4.422
82904.000			13.265			-4.422
83004.000			13.266			-4.422
83105.000			13.266			-4.422
83204.000			13.265			-4.422
83303.000			13.265			-4.422
83405.000			13.265			-4.422
83504.000			13.264			-4.421
83604.000			13.264			-4.421
83705.000			13.263			-4.421
83804.000			13.263			-4.421
83904.000			13.263			-4.421
84004.000			13.263			-4.421
84104.000			13.264			-4.421
84204.000			13.263			-4.421
84305.000			13.262			-4.421
84404.000			13.263			-4.421
84503.000			13.264			-4.421
84605.000			13.263			-4.421
84704.000			13.261			-4.420
84805.000			13.261			-4.420
84904.000			13.261			-4.420
85004.000			13.260			-4.420
85105.000			13.261			-4.420
85203.000			13.259			-4.420
85304.000			13.259			-4.420
85405.000			13.259			-4.420
85504.000			13.259			-4.420
85604.000			13.258			-4.419
85705.000			13.259			-4.420
85804.000			13.259			-4.420
85904.000			13.260			-4.420
86005.000			13.259			-4.420
86103.000			13.258			-4.419
86204.000			13.257			-4.419
86305.000			13.257			-4.419
86404.000			13.257			-4.419
86504.000			13.258			-4.419
86605.000			13.257			-4.419
86704.000			13.257			-4.419
86803.000			13.256			-4.419
86905.000			13.255			-4.418
87004.000			13.255			-4.418
87104.000			13.256			-4.419
87205.000			13.256			-4.419
87304.000			13.255			-4.418
87404.000			13.255			-4.418
87504.000			13.255			-4.418
87604.000			13.255			-4.418
87704.000			13.253			-4.418
87804.000			13.253			-4.418
87904.000			13.254			-4.418
88005.000			13.254			-4.418
88104.000			13.254			-4.418
88203.000			13.253			-4.418
88305.000			13.252			-4.417
88404.000			13.252			-4.417
88504.000			13.252			-4.417
88605.000			13.252			-4.417
88704.000			13.252			-4.417
88804.000			13.251			-4.417
88904.000			13.251			-4.417
89004.000			13.252			-4.417
89104.000			13.252			-4.417
89205.000			13.252			-4.417
89304.000			13.251			-4.417
89404.000			13.250			-4.417
89505.000			13.250			-4.417
89603.000			13.250			-4.417
89704.000			13.250			-4.417
89805.000			13.250			-4.417
89904.000			13.249			-4.416
90004.000			13.250			-4.417
90105.000			13.248			-4.416
90204.000			13.247			-4.416
90303.000			13.248			-4.416
90405.000			13.248			-4.416
90504.000			13.248			-4.416
90604.000			13.249			-4.416
90705.000			13.248			-4.416
90804.000			13.247			-4.416
90904.000			13.247			-4.416
91003.000			13.246			-4.415
91104.000			13.246			-4.415
91205.000			13.246			-4.415
91304.000			13.246			-4.415
91404.000			13.246			-4.415
91505.000			13.246			-4.415
91604.000			13.247			-4.416
91703.000			13.245			-4.415
91805.000			13.246			-4.415
91904.000			13.246			-4.415
92004.000			13.245			-4.415
92105.000			13.244			-4.415
92204.000			13.244			-4.415
92304.000			13.243			-4.414
92404.000			13.243			-4.414
92504.000			13.243			-4.414
92604.000			13.243			-4.414
92705.000			13.242			-4.414
92804.000			13.241			-4.414
92903.000			13.242			-4.414
93005.000			13.241			-4.414
93104.000			13.242			-4.414
93204.000			13.243			-4.414
93305.000			13.243			-4.414
93404.000			13.242			-4.414
93504.000			13.241			-4.414
93604.000			13.241			-4.414
93704.000			13.241			-4.414
93804.000			13.241			-4.414
93905.000			13.241			-4.414
94004.000			13.240			-4.413
94104.000			13.240			-4.413
94205.000			13.239			-4.413
94303.000			13.239			-4.413
94405.000			13.240			-4.413
94504.000			13.239			-4.413
94604.000			13.238			-4.413
94705.000			13.238			-4.413
94804.000			13.238			-4.413
94904.000			13.237			-4.412
95004.000			13.236			-4.412
95104.000			13.237			-4.412
95203.000			13.238			-4.413
95305.000			13.238			-4.413
95404.000			13.237			-4.412
95504.000			13.236			-4.412
95605.000			13.236			-4.412
95703.000			13.235			-4.412
95804.000			13.236			-4.412
95904.000			13.237			-4.412
96004.000			13.234			-4.411
96104.000			13.234			-4.411
96205.000			13.234			-4.411
96304.000			13.235			-4.412
96403.000			13.235			-4.412
96505.000			13.235			-4.412
96604.000			13.235			-4.412
96704.000			13.235			-4.412
96805.000			13.234			-4.411
96904.000			13.234			-4.411
97004.000			13.234			-4.411
97104.000			13.234			-4.411
97204.000			13.234			-4.411
97303.000			13.233			-4.411
97405.000			13.233			-4.411
97504.000			13.233			-4.411
97605.000			13.233			-4.411
97704.000			13.231			-4.410
97803.000			13.231			-4.410
97905.000			13.232			-4.411
98004.000			13.232			-4.411
98104.000			13.231			-4.410
98205.000			13.232			-4.411
98304.000			13.232			-4.411
98404.000			13.230			-4.410
98504.000			13.231			-4.410
98604.000			13.231			-4.410
98704.000			13.231			-4.410
98805.000			13.230			-4.410
98904.000			13.229			-4.410
99004.000			13.229			-4.410
99105.000			13.229			-4.410
99203.000			13.229			-4.410
99304.000			13.228			-4.409
99405.000			13.228			-4.409
99504.000			13.228			-4.409
99604.000			13.227			-4.409
99705.000			13.228			-4.409
99804.000			13.228			-4.409
99904.000			13.227			-4.409
100005.000			13.228			-4.409
100103.000			13.227			-4.409
100204.000			13.226			-4.409
100305.000			13.227			-4.409
100404.000			13.226			-4.409
100504.000			13.225			-4.408
100604.000			13.226			-4.409
100704.000			13.226			-4.409
100803.000			13.226			-4.409
100904.000			13.226			-4.409
101004.000			13.224			-4.408
101105.000			13.225			-4.408
101204.000			13.224			-4.408
101303.000			13.225			-4.408
101405.000			13.224			-4.408
101504.000			13.224			-4.408
101604.000			13.224			-4.408
101705.000			13.224			-4.408
101804.000			13.224			-4.408
101904.000			13.224			-4.408
102004.000			13.224			-4.408
102104.000			13.224			-4.408
102203.000			13.224			-4.408
102305.000			13.224			-4.408
102404.000			13.223			-4.408
102504.000			13.222			-4.407
102605.000			13.222			-4.407
102703.000			13.222			-4.407
102804.000			13.223			-4.408
102905.000			13.222			-4.407
103004.000			13.221			-4.407
103104.000			13.222			-4.407
103205.000			13.222			-4.407
103304.000			13.221			-4.407
103403.000			13.221			-4.407
103505.000			13.220			-4.407
103604.000			13.220			-4.407
103704.000			13.219			-4.406
103805.000			13.219			-4.406
103904.000			13.219			-4.406
104005.000			13.219			-4.406
104103.000			13.220			-4.407
104204.000			13.220			-4.407
104305.000			13.219			-4.406
104404.000			13.220			-4.407
104504.000			13.220			-4.407
104605.000			13.219			-4.406
104704.000			13.217			-4.406
104803.000			13.218			-4.406
104905.000			13.219			-4.406
105004.000			13.218			-4.406
105104.000			13.217			-4.406
105205.000			13.217			-4.406
105304.000			13.217			-4.406
105404.000			13.218			-4.406
105504.000			13.217			-4.406
105604.000			13.217			-4.406
105704.000			13.216			-4.405
105805.000			13.216			-4.405
105904.000			13.216			-4.405
106004.000			13.216			-4.405
106105.000			13.216			-4.405
106203.000			13.215			-4.405
106304.000			13.215			-4.405
106405.000			13.215			-4.405
106504.000			13.215			-4.405
106604.000			13.214			-4.405
106705.000			13.214			-4.405
106804.000			13.215			-4.405
106903.000			13.213			-4.404
107005.000			13.214			-4.405
107104.000			13.214			-4.405
107205.000			13.214			-4.405
107304.000			13.213			-4.404
107404.000			13.213			-4.404
107505.000			13.212			-4.404
107603.000			13.212			-4.404
107704.000			13.211			-4.404
107805.000			13.212			-4.404
107904.000			13.212			-4.404
108004.000			13.212			-4.404
108105.000			13.213			-4.404
108204.000			13.212			-4.404
108303.000			13.211			-4.404
108405.000			13.210			-4.403
108504.000			13.210			-4.403
108604.000			13.211			-4.404
108705.000			13.211			-4.404
108804.000			13.211			-4.404
108904.000			13.209			-4.403
109004.000			13.209			-4.403
109104.000			13.210			-4.403
109204.000			13.210			-4.403
109305.000			13.209			-4.403
109404.000			13.210			-4.403
109504.000			13.209			-4.403
109605.000			13.209			-4.403
109703.000			13.210			-4.403
109804.000			13.209			-4.403
109905.000			13.208			-4.403
110004.000			13.208			-4.403
110104.000			13.207			-4.402
110204.000			13.206			-4.402
110304.000			13.206			-4.402
110403.000			13.206			-4.402
110504.000			13.206			-4.402
110604.000			13.207			-4.402
110705.000			13.208			-4.403
110804.000			13.208			-4.403
110904.000			13.207			-4.402
111005.000			13.206			-4.402
111103.000			13.205			-4.402
111204.000			13.205			-4.402
111305.000			13.205			-4.402
111404.000			13.204			-4.401
111504.000			13.204			-4.401
111605.000			13.205			-4.402
111704.000			13.205			-4.402
111803.000			13.205			-4.402
111905.000			13.204			-4.401
112004.000			13.205			-4.402
112104.000			13.204			-4.401
112205.000			13.203			-4.401
112304.000			13.203			-4.401
112404.000			13.203			-4.401
112504.000			13.203			-4.401
112604.000			13.203			-4.401
112704.000			13.203			-4.401
112805.000			13.203			-4.401
112904.000			13.202			-4.401
113003.000			13.202			-4.401
113105.000			13.203			-4.401
113204.000			13.203			-4.401
113304.000			13.201			-4.400
113405.000			13.201			-4.400
113504.000			13.202			-4.401
113605.000			13.201			-4.400
113703.000			13.202			-4.401
113804.000			13.202			-4.401
113905.000			13.202			-4.401
114004.000			13.200			-4.400
114104.000			13.200			-4.400
114205.000			13.201			-4.400
114304.000			13.200			-4.400
114403.000			13.199			-4.400
114505.000			13.199			-4.400
114604.000			13.199			-4.400
114704.000			13.199			-4.400
114805.000			13.199			-4.400
114904.000			13.199			-4.400
115004.000			13.199			-4.400
115105.000			13.199			-4.400
115204.000			13.198			-4.399
115303.000			13.198			-4.399
115405.000			13.197			-4.399
115504.000			13.198			-4.399
115604.000			13.198			-4.399
115705.000			13.197			-4.399
115804.000			13.197			-4.399
115904.000			13.197			-4.399
116004.000			13.197			-4.399
116104.000			13.197			-4.399
116204.000			13.197			-4.399
116305.000			13.196			-4.399
116404.000			13.196			-4.399
116504.000			13.196			-4.399
116605.000			13.195			-4.398
116703.000			13.196			-4.399
116805.000			13.195			-4.398
116904.000			13.195			-4.398
117004.000			13.196			-4.399
117105.000			13.195			-4.398
117204.000			13.195			-4.398
117304.000			13.195			-4.398
117404.000			13.195			-4.398
117504.000			13.194			-4.398
117603.000			13.194			-4.398
117705.000			13.194			-4.398
117804.000			13.194			-4.398
117904.000			13.194			-4.398
118005.000			13.194			-4.398
118104.000			13.194			-4.398
118204.000			13.194			-4.398
118304.000			13.194			-4.398
118404.000			13.193			-4.398
118504.000			13.193			-4.398
118605.000			13.193			-4.398
118704.000			13.192			-4.397
118804.000			13.191			-4.397
118905.000			13.190			-4.397
119003.000			13.191			-4.397
119104.000			13.191			-4.397
119205.000			13.191			-4.397
119304.000			13.190			-4.397
119404.000			13.191			-4.397
119505.000			13.190			-4.397
119604.000			13.191			-4.397
119703.000			13.191			-4.397
119805.000			13.191			-4.397
119904.000			13.189			-4.396
120005.000			13.190			-4.397
120104.000			13.192			-4.397
120204.000			13.190			-4.397
120305.000			13.190			-4.397
120403.000			13.190			-4.397
120504.000			13.189			-4.396
120604.000			13.188			-4.396
120704.000			13.188			-4.396
120804.000			13.187			-4.396
120905.000			13.188			-4.396
121004.000			13.188			-4.396
121104.000			13.188			-4.396
121205.000			13.188			-4.396
121303.000			13.187			-4.396
121404.000			13.188			-4.396
121505.000			13.189			-4.396
121604.000			13.187			-4.396
121704.000			13.187			-4.396
121805.000			13.187			-4.396
121904.000			13.187			-4.396
122003.000			13.186			-4.395
122105.000			13.186			-4.395
122204.000			13.185			-4.395
122304.000			13.185			-4.395
122405.000			13.186			-4.395
122504.000			13.185			-4.395
122604.000			13.185			-4.395
122704.000			13.185			-4.395
122804.000			13.185			-4.395
122904.000			13.185			-4.395
123004.000			13.184			-4.395
123104.000			13.183			-4.394
123205.000			13.184			-4.395
123304.000			13.183			-4.394
123403.000			13.184			-4.395
123505.000			13.183			-4.394
123604.000			13.183			-4.394
123704.000			13.183			-4.394
123805.000			13.182			-4.394
123904.000			13.183			-4.394
124004.000			13.184			-4.395
124104.000			13.183			-4.394
124204.000			13.182			-4.394
124304.000			13.181			-4.394
124405.000			13.181			-4.394
124504.000			13.182			-4.394
124604.000			13.181			-4.394
124705.000			13.180			-4.393
124803.000			13.180			-4.393
124904.000			13.180			-4.393
125005.000			13.181			-4.394
125104.000			13.181			-4.394
125204.000			13.180			-4.393
125305.000			13.179			-4.393
125404.000			13.179			-4.393
125503.000			13.179			-4.393
125605.000			13.178			-4.393
125703.000			13.178			-4.393
125804.000			13.179			-4.393
125905.000			13.178			-4.393
126004.000			13.179			-4.393
126104.000			13.180			-4.393
126204.000			13.179			-4.393
126304.000			13.179			-4.393
126403.000			13.178			-4.393
126504.000			13.177			-4.392
126604.000			13.177			-4.392
126705.000			13.177			-4.392
126804.000			13.177			-4.392
126904.000			13.176			-4.392
127005.000			13.177			-4.392
127103.000			13.177			-4.392
127204.000			13.177			-4.392
127305.000			13.177			-4.392
127404.000			13.177			-4.392
127504.000			13.175			-4.392
127605.000			13.175			-4.392
127704.000			13.176			-4.392
127803.000			13.175			-4.392
127905.000			13.175			-4.392
128004.000			13.175			-4.392
128104.000			13.175			-4.392
128205.000			13.175			-4.392
128304.000			13.175			-4.392
128404.000			13.174			-4.391
128504.000			13.174			-4.391
128604.000			13.175			-4.392
128703.000			13.174			-4.391
128805.000			13.173			-4.391
128904.000			13.174			-4.391
129004.000			13.173			-4.391
129105.000			13.172			-4.391
129204.000			13.172			-4.391
129304.000			13.172			-4.391
129403.000			13.173			-4.391
129504.000			13.173			-4.391
129605.000			13.173			-4.391
129704.000			13.173			-4.391
129804.000			13.172			-4.391
129905.000			13.172			-4.391
130004.000			13.173			-4.391
130103.000			13.172			-4.391
130205.000			13.172			-4.391
130304.000			13.171			-4.390
130404.000			13.171			-4.390
130505.000			13.171			-4.390
130604.000			13.171			-4.390
130704.000			13.171			-4.390
130804.000			13.171			-4.390
130904.000			13.170			-4.390
131004.000			13.171			-4.390
131105.000			13.169			-4.390
131204.000			13.170			-4.390
131304.000			13.170			-4.390
131405.000			13.170			-4.390
131503.000			13.170			-4.390
131604.000			13.170			-4.390
131705.000			13.170			-4.390
131804.000			13.168			-4.389
131904.000			13.168			-4.389
132005.000			13.168			-4.389
132104.000			13.169			-4.390
132204.000			13.168			-4.389
132305.000			13.168			-4.389
132403.000			13.168			-4.389
132504.000			13.167			-4.389
132605.000			13.168			-4.389
132704.000			13.168			-4.389
132805.000			13.168			-4.389
132904.000			13.167			-4.389
133004.000			13.166			-4.389
133105.000			13.165			-4.388
133204.000			13.165			-4.388
133303.000			13.166			-4.389
133405.000			13.166			-4.389
133504.000			13.167			-4.389
133604.000			13.166			-4.389
133705.000			13.165			-4.388
133804.000			13.166			-4.389
133904.000			13.166			-4.389
134004.000			13.165			-4.388
134104.000			13.165			-4.388
134203.000			13.164			-4.388
134305.000			13.164			-4.388
134404.000			13.165			-4.388
134504.000			13.165			-4.388
134605.000			13.164			-4.388
134704.000			13.164			-4.388
134804.000			13.164			-4.388
134904.000			13.164			-4.388
135004.000			13.164			-4.388
135103.000			13.163			-4.388
135205.000			13.163			-4.388
135304.000			13.163			-4.388
135404.000			13.164			-4.388
135505.000			13.163			-4.388
135604.000			13.163			-4.388
135704.000			13.163			-4.388
135803.000			13.162			-4.387
135904.000			13.163			-4.388
136005.000			13.163			-4.388
136104.000			13.162			-4.387
136204.000			13.162			-4.387
136305.000			13.162			-4.387
136404.000			13.162			-4.387
136504.000			13.162			-4.387
136605.000			13.161			-4.387
136703.000			13.161			-4.387
136804.000			13.161			-4.387
136905.000			13.160			-4.387
137004.000			13.161			-4.387
137104.000			13.160			-4.387
137205.000			13.160			-4.387
137304.000			13.160			-4.387
137403.000			13.160			-4.387
137505.000			13.160			-4.387
137603.000			13.160			-4.387
137704.000			13.159			-4.386
137805.000			13.160			-4.387
137904.000			13.160			-4.387
138004.000			13.160			-4.387
138105.000			13.160			-4.387
138204.000			13.159			-4.386
138303.000			13.159			-4.386
138405.000			13.159			-4.386
138503.000			13.159			-4.386
138604.000			13.159			-4.386
138705.000			13.158			-4.386
138804.000			13.158			-4.386
138904.000			13.158			-4.386
139004.000			13.158			-4.386
139104.000			13.158			-4.386
139203.000			13.157			-4.386
139304.000			13.156			-4.385
139403.000			13.156			-4.385
139505.000			13.156			-4.385
139604.000			13.157			-4.386
139704.000			13.157			-4.386
139805.000			13.157			-4.386
139904.000			13.156			-4.385
140004.000			13.156			-4.385
140104.000			13.156			-4.385
140204.000			13.155			-4.385
140303.000			13.156			-4.385
140405.000			13.156			-4.385
140504.000			13.154			-4.385
140604.000			13.155			-4.385
140705.000			13.154			-4.385
140804.000			13.154			-4.385
140904.000			13.154			-4.385
141004.000			13.154			-4.385
141104.000			13.154			-4.385
141204.000			13.154			-4.385
141305.000			13.154			-4.385
141404.000			13.153			-4.384
141504.000			13.152			-4.384
141605.000			13.153			-4.384
141703.000			13.154			-4.385
141804.000			13.154			-4.385
141904.000			13.154			-4.385
142004.000			13.154			-4.385
142104.000			13.153			-4.384
142204.000			13.153			-4.384
142304.000			13.153			-4.384
142405.000			13.153			-4.384
142504.000			13.153			-4.384
142603.000			13.153			-4.384
142705.000			13.152			-4.384
142804.000			13.152			-4.384
142904.000			13.152			-4.384
143005.000			13.152			-4.384
143104.000			13.151			-4.384
143204.000			13.151			-4.384
143304.000			13.151			-4.384
143404.000			13.149			-4.383
143503.000			13.151			-4.384
143605.000			13.152			-4.384
143704.000			13.151			-4.384
143804.000			13.150			-4.383
143905.000			13.150			-4.383
144004.000			13.149			-4.383
144104.000			13.149			-4.383
144204.000			13.149			-4.383
144304.000			13.149			-4.383
144403.000			13.149			-4.383
144505.000			13.149			-4.383
144604.000			13.150			-4.383
144704.000			13.149			-4.383
144805.000			13.148			-4.383
144904.000			13.148			-4.383
145004.000			13.148			-4.383
145104.000			13.147			-4.382
145204.000			13.147			-4.382
145304.000			13.147			-4.382
145404.000			13.147			-4.382
145504.000			13.148			-4.383
145605.000			13.147			-4.382
145704.000			13.147			-4.382
145804.000			13.146			-4.382
145905.000			13.147			-4.382
146003.000			13.147			-4.382
146104.000			13.146			-4.382
146205.000			13.147			-4.382
146304.000			13.147			-4.382
146404.000			13.146			-4.382
146505.000			13.145			-4.382
146604.000			13.146			-4.382
146704.000			13.147			-4.382
146805.000			13.146			-4.382
146903.000			13.146			-4.382
147004.000			13.145			-4.382
147105.000			13.145			-4.382
147204.000			13.145			-4.382
147304.000			13.145			-4.382
147405.000			13.144			-4.381
147504.000			13.144			-4.381
147603.000			13.145			-4.382
147705.000			13.145			-4.382
147803.000			13.144			-4.381
147904.000			13.143			-4.381
148005.000			13.144			-4.381
148104.000			13.143			-4.381
148204.000			13.141			-4.380
148305.000			13.142			-4.381
148404.000			13.143			-4.381
148503.000			13.143			-4.381
148605.000			13.143			-4.381
148704.000			13.143			-4.381
148805.000			13.142			-4.381
148904.000			13.142			-4.381
149004.000			13.142			-4.381
149105.000			13.143			-4.381
149204.000			13.142			-4.381
149304.000			13.142			-4.381
149404.000			13.142			-4.381
149504.000			13.140			-4.380
149604.000			13.141			-4.380
149705.000			13.142			-4.381
149804.000			13.141			-4.380
149904.000			13.141			-4.380
150005.000			13.141			-4.380
150104.000			13.141			-4.380
150204.000			13.140			-4.380
150304.000			13.140			-4.380
150404.000			13.140			-4.380
150504.000			13.141			-4.380
150605.000			13.140			-4.380
150704.000			13.140			-4.380
150804.000			13.140			-4.380
150905.000			13.140			-4.380
151003.000			13.139			-4.380
151104.000			13.139			-4.380
151205.000			13.139			-4.380
151304.000			13.138			-4.379
151404.000			13.138			-4.379
151505.000			13.139			-4.380
151604.000			13.138			-4.379
151704.000			13.138			-4.379
151805.000			13.138			-4.379
151903.000			13.137			-4.379
152005.000			13.137			-4.379
152104.000			13.137			-4.379
152204.000			13.138			-4.379
152305.000			13.138			-4.379
152404.000			13.136			-4.379
152504.000			13.136			-4.379
152605.000			13.136			-4.379
152704.000			13.137			-4.379
152803.000			13.137			-4.379
152905.000			13.137			-4.379
153004.000			13.137			-4.379
153104.000			13.137			-4.379
153205.000			13.137			-4.379
153304.000			13.136			-4.379
153404.000			13.135			-4.378
153504.000			13.135			-4.378
153604.000			13.135			-4.378
153703.000			13.135			-4.378
153805.000			13.135			-4.378
153904.000			13.135			-4.378
154004.000			13.134			-4.378
154105.000			13.134			-4.378
154204.000			13.135			-4.378
154304.000			13.133			-4.378
154404.000			13.134			-4.378
154504.000			13.134			-4.378
154604.000			13.133			-4.378
154705.000			13.133			-4.378
154804.000			13.133			-4.378
154904.000			13.134			-4.378
155005.000			13.135			-4.378
155104.000			13.133			-4.378
155205.000			13.133			-4.378
155303.000			13.132			-4.377
155404.000			13.132			-4.377
155505.000			13.132			-4.377
155604.000			13.132			-4.377
155704.000			13.133			-4.378
155805.000			13.133			-4.378
155904.000			13.132			-4.377
156003.000			13.132			-4.377
156105.000			13.132			-4.377
156204.000			13.133			-4.378
156304.000			13.132			-4.377
156405.000			13.131			-4.377
156504.000			13.131			-4.377
156604.000			13.132			-4.377
156705.000			13.132			-4.377
156804.000			13.132			-4.377
156903.000			13.131			-4.377
157005.000			13.132			-4.377
157104.000			13.131			-4.377
157204.000			13.131			-4.377
157305.000			13.131			-4.377
157404.000			13.130			-4.377
157504.000			13.129			-4.376
157604.000			13.129			-4.376
157704.000			13.130			-4.377
157803.000			13.131			-4.377
157905.000			13.129			-4.376
158004.000			13.129			-4.376
158104.000			13.129			-4.376
158205.000			13.128			-4.376
158304.000			13.128			-4.376
158405.000			13.129			-4.376
158503.000			13.130			-4.377
158604.000			13.130			-4.377
158704.000			13.129			-4.376
158804.000			13.128			-4.376
158904.000			13.128			-4.376
159005.000			13.127			-4.376
159104.000			13.127			-4.376
159204.000			13.128			-4.376
159305.000			13.128			-4.376
159403.000			13.128			-4.376
159504.000			13.127			-4.376
159605.000			13.127			-4.376
159704.000			13.127			-4.376
159804.000			13.127			-4.376
159905.000			13.127			-4.376
160004.000			13.126			-4.375
160104.000			13.127			-4.376
160205.000			13.127			-4.376
160303.000			13.125			-4.375
160404.000			13.126			-4.375
160505.000			13.126			-4.375
160604.000			13.126			-4.375
160704.000			13.126			-4.375
160805.000			13.126			-4.375
160904.000			13.126			-4.375
161004.000			13.126			-4.375
161105.000			13.125			-4.375
161203.000			13.124			-4.375
161304.000			13.125			-4.375
161405.000			13.125			-4.375
161504.000			13.125			-4.375
161605.000			13.125			-4.375
161704.000			13.124			-4.375
161804.000			13.124			-4.375
161904.000			13.125			-4.375
162004.000			13.124			-4.375
162103.000			13.124			-4.375
162205.000			13.123			-4.374
162304.000			13.123			-4.374
162404.000			13.122			-4.374
162505.000			13.123			-4.374
162604.000			13.123			-4.374
162704.000			13.123			-4.374
162804.000			13.122			-4.374
162904.000			13.121			-4.374
163004.000			13.121			-4.374
163105.000			13.121			-4.374
163204.000			13.122			-4.374
163304.000			13.121			-4.374
163405.000			13.122			-4.374
163503.000			13.120			-4.373
163604.000			13.121			-4.374
163705.000			13.121			-4.374
163804.000			13.122			-4.374
163904.000			13.122			-4.374
164005.000			13.120			-4.373
164104.000			13.120			-4.373
164204.000			13.121			-4.374
164305.000			13.121			-4.374
164403.000			13.121			-4.374
164504.000			13.121			-4.374
164605.000			13.121			-4.374
164704.000			13.120			-4.373
164805.000			13.120			-4.373
164904.000			13.121			-4.374
165004.000			13.121			-4.374
165104.000			13.120			-4.373
165204.000			13.120			-4.373
165303.000			13.119			-4.373
165405.000			13.119			-4.373
165504.000			13.119			-4.373
165604.000			13.119			-4.373
165705.000			13.118			-4.373
165804.000			13.120			-4.373
165904.000			13.120			-4.373
166004.000			13.120			-4.373
166104.000			13.119			-4.373
166204.000			13.119			-4.373
166305.000			13.119			-4.373
166404.000			13.118			-4.373
166504.000			13.118			-4.373
166605.000			13.119			-4.373
166704.000			13.119			-4.373
166804.000			13.119			-4.373
166904.000			13.118			-4.373
167004.000			13.117			-4.372
167104.000			13.118			-4.373
167205.000			13.117			-4.372
167304.000			13.116			-4.372
167404.000			13.116			-4.372
167505.000			13.116			-4.372
167603.000			13.116			-4.372
167704.000			13.117			-4.372
167803.000			13.117			-4.372
167904.000			13.116			-4.372
168005.000			13.115			-4.372
168104.000			13.115			-4.372
168204.000			13.116			-4.372
168305.000			13.116			-4.372
168404.000			13.115			-4.372
168503.000			13.115			-4.372
168605.000			13.116			-4.372
168704.000			13.116			-4.372
168804.000			13.116			-4.372
168905.000			13.116			-4.372
169004.000			13.115			-4.372
169104.000			13.115			-4.372
169205.000			13.114			-4.371
169304.000			13.115			-4.372
169403.000			13.115			-4.372
169505.000			13.114			-4.371
169604.000			13.115			-4.372
169704.000			13.115			-4.372
169805.000			13.116			-4.372
169904.000			13.114			-4.371
170004.000			13.114			-4.371
170104.000			13.113			-4.371
170204.000			13.112			-4.371
170303.000			13.113			-4.371
170405.000			13.113			-4.371
170504.000			13.113			-4.371
170604.000			13.113			-4.371
170705.000			13.112			-4.371
170804.000			13.112			-4.371
170904.000			13.112			-4.371
171003.000			13.112			-4.371
171104.000			13.112			-4.371
171205.000			13.112			-4.371
171304.000			13.112			-4.371
171404.000			13.111			-4.370
171505.000			13.112			-4.371
171604.000			13.112			-4.371
171704.000			13.112			-4.371
171805.000			13.111			-4.370
171903.000			13.112			-4.371
172004.000			13.111			-4.370
172105.000			13.111			-4.370
172204.000			13.110			-4.370
172304.000			13.110			-4.370
172405.000			13.110			-4.370
172504.000			13.110			-4.370
172603.000			13.110			-4.370
172705.000			13.110			-4.370
172804.000			13.110			-4.370
172904.000			13.109			-4.370
173005.000			13.110			-4.370
173104.000			13.110			-4.370
173204.000			13.110			-4.370
173305.000			13.110			-4.370
173404.000			13.109			-4.370
173503.000			13.108			-4.369
173605.000			13.108			-4.369
173704.000			13.108			-4.369
173804.000			13.108			-4.369
173905.000			13.107			-4.369
174004.000			13.107			-4.369
174104.000			13.108			-4.369
174204.000			13.108			-4.369
174304.000			13.108			-4.369
174403.000			13.108			-4.369
174504.000			13.107			-4.369
174604.000			13.108			-4.369
174705.000			13.108			-4.369
174804.000			13.109			-4.370
174904.000			13.107			-4.369
175005.000			13.107			-4.369
175104.000			13.107			-4.369
175204.000			13.107			-4.369
175304.000			13.107			-4.369
175404.000			13.108			-4.369
175504.000			13.108			-4.369
175605.000			13.108			-4.369
175704.000			13.107			-4.369
175804.000			13.106			-4.369
175905.000			13.105			-4.368
176004.000			13.105			-4.368
176104.000			13.105			-4.368
176204.000			13.105			-4.368
176304.000			13.105			-4.368
176404.000			13.105			-4.368
176505.000			13.105			-4.368
176604.000			13.105			-4.368
176704.000			13.105			-4.368
176805.000			13.104			-4.368
176903.000			13.105			-4.368
177004.000			13.104			-4.368
177104.000			13.103			-4.368
177204.000			13.104			-4.368
177304.000			13.104			-4.368
177404.000			13.104			-4.368
177504.000			13.103			-4.368
177605.000			13.103			-4.368
177704.000			13.103			-4.368
177803.000			13.103			-4.368
177905.000			13.103			-4.368
178004.000			13.103			-4.368
178104.000			13.103			-4.368
178205.000			13.102			-4.367
178304.000			13.103			-4.368
178404.000			13.103			-4.368
178505.000			13.102			-4.367
178604.000			13.102			-4.367
178703.000			13.102			-4.367
178805.000			13.102			-4.367
178904.000			13.102			-4.367
179004.000			13.102			-4.367
179105.000			13.102			-4.367
179204.000			13.102			-4.367
179304.000			13.102			-4.367
179405.000			13.102			-4.367
179504.000			13.101			-4.367
179603.000			13.101			-4.367
179705.000			13.101			-4.367
179804.000			13.102			-4.367
179904.000			13.102			-4.367
180005.000			13.102			-4.367
180104.000			13.101			-4.367
180204.000			13.100			-4.367
180304.000			13.099			-4.366
180404.000			13.100			-4.367
180503.000			13.101			-4.367
180605.000			13.101			-4.367
180704.000			13.101			-4.367
180805.000			13.100			-4.367
180904.000			13.100			-4.367
181004.000			13.099			-4.366
181105.000			13.099			-4.366
181203.000			13.100			-4.367
181304.000			13.100			-4.367
181405.000			13.100			-4.367
181504.000			13.099			-4.366
181604.000			13.099			-4.366
181705.000			13.099			-4.366
181804.000			13.099			-4.366
181904.000			13.098			-4.366
182005.000			13.098			-4.366
182103.000			13.097			-4.366
182204.000			13.097			-4.366
182305.000			13.098			-4.366
182404.000			13.098			-4.366
182504.000			13.098			-4.366
182605.000			13.098			-4.366
182704.000			13.098			-4.366
182804.000			13.098			-4.366
182905.000			13.097			-4.366
183003.000			13.097			-4.366
183104.000			13.097			-4.366
183205.000			13.097			-4.366
183304.000			13.096			-4.365
183404.000			13.097			-4.366
183505.000			13.096			-4.365
183604.000			13.096			-4.365
183704.000			13.096			-4.365
183805.000			13.096			-4.365
183903.000			13.096			-4.365
184005.000			13.096			-4.365
184104.000			13.096			-4.365
184204.000			13.096			-4.365
184305.000			13.097			-4.366
184404.000			13.096			-4.365
184504.000			13.095			-4.365
184605.000			13.095			-4.365
184704.000			13.095			-4.365
184803.000			13.095			-4.365
184905.000			13.095			-4.365
185004.000			13.094			-4.365
185104.000			13.095			-4.365
185205.000			13.095			-4.365
185304.000			13.094			-4.365
185404.000			13.094			-4.365
185505.000			13.094			-4.365
185604.000			13.093			-4.364
185703.000			13.094			-4.365
185805.000			13.094			-4.365
185904.000			13.095			-4.365
186004.000			13.093			-4.364
186105.000			13.093			-4.364
186204.000			13.094			-4.365
186304.000			13.095			-4.365
186405.000			13.094			-4.365
186504.000			13.093			-4.364
186603.000			13.093			-4.364
186705.000			13.092			-4.364
186804.000			13.092			-4.364
186904.000			13.092			-4.364
187005.000			13.092			-4.364
187104.000			13.092			-4.364
187205.000			13.092			-4.364
187304.000			13.092			-4.364
187404.000			13.092			-4.364
187504.000			13.092			-4.364
187604.000			13.092			-4.364
187703.000			13.091			-4.364
187805.000			13.090			-4.363
187904.000			13.090			-4.363
188004.000			13.091			-4.364
188105.000			13.091			-4.364
188204.000			13.091			-4.364
188304.000			13.091			-4.364
188404.000			13.091			-4.364
188504.000			13.091			-4.364
188603.000			13.091			-4.364
188705.000			13.091			-4.364
188804.000			13.090			-4.363
188904.000			13.090			-4.363
189005.000			13.090			-4.363
189104.000			13.089			-4.363
189204.000			13.090			-4.363
189304.000			13.089			-4.363
189404.000			13.090			-4.363
189503.000			13.091			-4.364
189605.000			13.091			-4.364
189704.000			13.089			-4.363
189804.000			13.089			-4.363
189905.000			13.090			-4.363
190004.000			13.090			-4.363
190104.000			13.090			-4.363
190204.000			13.089			-4.363
190304.000			13.088			-4.363
190403.000			13.088			-4.363
190504.000			13.088			-4.363
190604.000			13.088			-4.363
190705.000			13.088			-4.363
190804.000			13.088			-4.363
190904.000			13.087			-4.362
191005.000			13.089			-4.363
191104.000			13.089			-4.363
191204.000			13.088			-4.363
191304.000			13.087			-4.362
191404.000			13.087			-4.362
191504.000			13.088			-4.363
191605.000			13.088			-4.363
191704.000			13.087			-4.362
191804.000			13.087			-4.362
191905.000			13.087			-4.362
192004.000			13.088			-4.363
192104.000			13.088			-4.363
192204.000			13.087			-4.362
192304.000			13.086			-4.362
192404.000			13.088			-4.363
192505.000			13.087			-4.362
192604.000			13.087			-4.362
192704.000			13.087			-4.362
192805.000			13.087			-4.362
192904.000			13.087			-4.362
193004.000			13.087			-4.362
193104.000			13.087			-4.362
193204.000			13.087			-4.362
193304.000			13.086			-4.362
193404.000			13.087			-4.362
193504.000			13.086			-4.362
193605.000			13.086			-4.362
193704.000			13.086			-4.362
193804.000			13.085			-4.362
193905.000			13.086			-4.362
194003.000			13.086			-4.362
194104.000			13.086			-4.362
194205.000			13.086			-4.362
194304.000			13.086			-4.362
194404.000			13.085			-4.362
194505.000			13.085			-4.362
194604.000			13.084			-4.361
194704.000			13.084			-4.361
194805.000			13.084			-4.361
194903.000			13.085			-4.362
195004.000			13.086			-4.362
195105.000			13.085			-4.362
195204.000			13.084			-4.361
195304.000			13.083			-4.361
195405.000			13.084			-4.361
195504.000			13.084			-4.361
195604.000			13.084			-4.361
195705.000			13.083			-4.361
195803.000			13.084			-4.361
195904.000			13.084			-4.361
196005.000			13.083			-4.361
196104.000			13.083			-4.361
196204.000			13.084			-4.361
196305.000			13.083			-4.361
196404.000			13.083			-4.361
196504.000			13.083			-4.361
196605.000			13.083			-4.361
196703.000			13.083			-4.361
196805.000			13.081			-4.360
196904.000			13.082			-4.361
197004.000			13.082			-4.361
197105.000			13.081			-4.360
197204.000			13.082			-4.361
197304.000			13.081			-4.360
197405.000			13.081			-4.360
197504.000			13.082			-4.361
197603.000			13.082			-4.361
197705.000			13.082			-4.361
197804.000			13.081			-4.360
197904.000			13.080			-4.360
198005.000			13.080			-4.360
198104.000			13.079			-4.360
198204.000			13.080			-4.360
198305.000			13.079			-4.360
198404.000			13.079			-4.360
198503.000			13.080			-4.360
198605.000			13.080			-4.360
198703.000			13.079			-4.360
198804.000			13.078			-4.359
198905.000			13.078			-4.359
199004.000			13.078			-4.359
199104.000			13.079			-4.360
199205.000			13.079			-4.360
199304.000			13.079			-4.360
199403.000			13.078			-4.359
199505.000			13.077			-4.359
199603.000			13.078			-4.359
199704.000			13.078			-4.359
199805.000			13.078			-4.359
199904.000			13.078			-4.359
200005.000			13.078			-4.359
200104.000			13.078			-4.359
200204.000			13.078			-4.359
200305.000			13.077			-4.359
200404.000			13.076			-4.359
200503.000			13.076			-4.359
200605.000			13.077			-4.359
200704.000			13.078			-4.359
200804.000			13.077			-4.359
200905.000			13.076			-4.359
201004.000			13.076			-4.359
201104.000			13.076			-4.359
201204.000			13.076			-4.359
201304.000			13.076			-4.359
201404.000			13.076			-4.359
201505.000			13.076			-4.359
201604.000			13.076			-4.359
201704.000			13.076			-4.359
201805.000			13.075			-4.358
201904.000			13.075			-4.358
202004.000			13.075			-4.358
202104.000			13.075			-4.358
202204.000			13.075			-4.358
202304.000			13.076			-4.359
202405.000			13.075			-4.358
202504.000			13.075			-4.358
202604.000			13.074			-4.358
202705.000			13.073			-4.358
202803.000			13.073			-4.358
202904.000			13.074			-4.358
203003.000			13.075			-4.358
203104.000			13.074			-4.358
203205.000			13.073			-4.358
203304.000			13.073			-4.358
203404.000			13.073			-4.358
203505.000			13.074			-4.358
203604.000			13.074			-4.358
203703.000			13.073			-4.358
203805.000			13.072			-4.357
203904.000			13.073			-4.358
204004.000			13.072			-4.357
204105.000			13.072			-4.357
204204.000			13.072			-4.357
204304.000			13.072			-4.357
204404.000			13.072			-4.357
204504.000			13.071			-4.357
204603.000			13.072			-4.357
204705.000			13.072			-4.357
204804.000			13.071			-4.357
204904.000			13.071			-4.357
205005.000			13.071			-4.357
205104.000			13.073			-4.358
205204.000			13.072			-4.357
205304.000			13.071			-4.357
205404.000			13.071			-4.357
205504.000			13.072			-4.357
205605.000			13.071			-4.357
205704.000			13.071			-4.357
205804.000			13.071			-4.357
205905.000			13.071			-4.357
206003.000			13.071			-4.357
206104.000			13.070			-4.357
206205.000			13.070			-4.357
206304.000			13.070			-4.357
206405.000			13.071			-4.357
206504.000			13.070			-4.357
206604.000			13.070			-4.357
206705.000			13.071			-4.357
206804.000			13.071			-4.357
206903.000			13.071			-4.357
207005.000			13.070			-4.357
207104.000			13.069			-4.356
207204.000			13.069			-4.356
207305.000			13.070			-4.357
207404.000			13.069			-4.356
207504.000			13.069			-4.356
207604.000			13.069			-4.356
207704.000			13.068			-4.356
207803.000			13.068			-4.356
207905.000			13.068			-4.356
208004.000			13.067			-4.356
208104.000			13.068			-4.356
208205.000			13.067			-4.356
208304.000			13.068			-4.356
208404.000			13.068			-4.356
208504.000			13.068			-4.356
208604.000			13.067			-4.356
208703.000			13.067			-4.356
208805.000			13.068			-4.356
208904.000			13.067			-4.356
209004.000			13.066			-4.355
209105.000			13.067			-4.356
209204.000			13.067			-4.356
209304.000			13.067			-4.356
209403.000			13.067			-4.356
209504.000			13.068			-4.356
209605.000			13.067			-4.356
209704.000			13.067			-4.356
209804.000			13.066			-4.355
209905.000			13.066			-4.355
210004.000			13.066			-4.355
210104.000			13.066			-4.355
210205.000			13.064			-4.355
210303.000			13.065			-4.355
210404.000			13.065			-4.355
210505.000			13.065			-4.355
210604.000			13.065			-4.355
210704.000			13.066			-4.355
210805.000			13.065			-4.355
210904.000			13.064			-4.355
211003.000			13.065			-4.355
211105.000			13.065			-4.355
211204.000			13.065			-4.355
211304.000			13.065			-4.355
211405.000			13.065			-4.355
211504.000			13.065			-4.355
211604.000			13.065			-4.355
211705.000			13.065			-4.355
211804.000			13.065			-4.355
211903.000			13.065			-4.355
212005.000			13.064			-4.355
212104.000			13.064			-4.355
212204.000			13.064			-4.355
212305.000			13.065			-4.355
212404.000			13.064			-4.355
212504.000			13.063			-4.354
212603.000			13.063			-4.354
212704.000			13.064			-4.355
212805.000			13.063			-4.354
212904.000			13.063			-4.354
213004.000			13.063			-4.354
213105.000			13.062			-4.354
213204.000			13.063			-4.354
213304.000			13.064			-4.355
213405.000			13.064			-4.355
213503.000			13.063			-4.354
213604.000			13.063			-4.354
213705.000			13.062			-4.354
213804.000			13.062			-4.354
213904.000			13.062			-4.354
214005.000			13.062			-4.354
214104.000			13.063			-4.354
214203.000			13.062			-4.354
214305.000			13.063			-4.354
214404.000			13.062			-4.354
214504.000			13.061			-4.354
214605.000			13.061			-4.354
214704.000			13.061			-4.354
214804.000			13.061			-4.354
214905.000			13.061			-4.354
215004.000			13.061			-4.354
215103.000			13.061			-4.354
215205.000			13.060			-4.353
215304.000			13.060			-4.353
215404.000			13.060			-4.353
215505.000			13.059			-4.353
215604.000			13.059			-4.353
215704.000			13.060			-4.353
215803.000			13.061			-4.354
215904.000			13.060			-4.353
216003.000			13.060			-4.353
216104.000			13.060			-4.353
216204.000			13.060			-4.353
216305.000			13.060			-4.353
216404.000			13.060			-4.353
216504.000			13.059			-4.353
216605.000			13.059			-4.353
216703.000			13.059			-4.353
216804.000			13.058			-4.353
216905.000			13.059			-4.353
217004.000			13.058			-4.353
217104.000			13.058			-4.353
217205.000			13.060			-4.353
217304.000			13.059			-4.353
217404.000			13.059			-4.353
217505.000			13.059			-4.353
217603.000			13.058			-4.353
217704.000			13.057			-4.352
217805.000			13.057			-4.352
217904.000			13.057			-4.352
218004.000			13.058			-4.353
218105.000			13.058			-4.353
218204.000			13.058			-4.353
218303.000			13.058			-4.353
218405.000			13.057			-4.352
218503.000			13.056			-4.352
218604.000			13.057			-4.352
218705.000			13.057			-4.352
218804.000			13.058			-4.353
218904.000			13.057			-4.352
219004.000			13.056			-4.352
219104.000			13.057			-4.352
219203.000			13.057			-4.352
219304.000			13.057			-4.352
219403.000			13.057			-4.352
219505.000			13.056			-4.352
219604.000			13.056			-4.352
219704.000			13.057			-4.352
219805.000			13.057			-4.352
219904.000			13.056			-4.352
220004.000			13.055			-4.352
220104.000			13.056			-4.352
220204.000			13.056			-4.352
220304.000			13.056			-4.352
220405.000			13.055			-4.352
220504.000			13.054			-4.351
220604.000			13.056			-4.352
220705.000			13.056			-4.352
220803.000			13.056			-4.352
220904.000			13.055			-4.352
221004.000			13.055			-4.352
221104.000			13.054			-4.351
221204.000			13.054			-4.351
221305.000			13.055			-4.352
221404.000			13.055			-4.352
221504.000			13.054			-4.351
221605.000			13.054			-4.351
221703.000			13.054			-4.351
221804.000			13.054			-4.351
221905.000			13.055			-4.352
222004.000			13.055			-4.352
222104.000			13.054			-4.351
222204.000			13.054			-4.351
222304.000			13.055			-4.352
222403.000			13.053			-4.351
222504.000			13.053			-4.351
222603.000			13.053			-4.351
222705.000			13.053			-4.351
222804.000			13.054			-4.351
222904.000			13.053			-4.351
223005.000			13.053			-4.351
223104.000			13.054			-4.351
223204.000			13.054			-4.351
223304.000			13.052			-4.351
223404.000			13.052			-4.351
223504.000			13.053			-4.351
223605.000			13.052			-4.351
223704.000			13.051			-4.350
223804.000			13.051			-4.350
223905.000			13.052			-4.351
224003.000			13.052			-4.351
224104.000			13.051			-4.350
224205.000			13.051			-4.350
224304.000			13.051			-4.350
224404.000			13.051			-4.350
224505.000			13.052			-4.351
224604.000			13.051			-4.350
224704.000			13.050			-4.350
224805.000			13.051			-4.350
224903.000			13.051			-4.350
225004.000			13.052			-4.351
225105.000			13.052			-4.351
225204.000			13.052			-4.351
225304.000			13.050			-4.350
225404.000			13.050			-4.350
225504.000			13.051			-4.350
225603.000			13.051			-4.350
225704.000			13.049			-4.350
225803.000			13.049			-4.350
225905.000			13.050			-4.350
226004.000			13.051			-4.350
226104.000			13.050			-4.350
226205.000			13.049			-4.350
226304.000			13.049			-4.350
226404.000			13.048			-4.349
226504.000			13.049			-4.350
226604.000			13.049			-4.350
226703.000			13.049			-4.350
226805.000			13.050			-4.350
226904.000			13.049			-4.350
227004.000			13.048			-4.349
227105.000			13.048			-4.349
227204.000			13.048			-4.349
227304.000			13.048			-4.349
227404.000			13.048			-4.349
227504.000			13.048			-4.349
227603.000			13.048			-4.349
227705.000			13.048			-4.349
227804.000			13.048			-4.349
227904.000			13.048			-4.349
228005.000			13.048			-4.349
228104.000			13.048			-4.349
228204.000			13.048			-4.349
228304.000			13.048			-4.349
228404.000			13.048			-4.349
228504.000			13.046			-4.349
228604.000			13.047			-4.349
228704.000			13.047			-4.349
228805.000			13.047			-4.349
228904.000			13.046			-4.349
229004.000			13.047			-4.349
229105.000			13.047			-4.349
229203.000			13.047			-4.349
229304.000			13.047			-4.349
229405.000			13.048			-4.349
229504.000			13.048			-4.349
229604.000			13.046			-4.349
229705.000			13.046			-4.349
229804.000			13.046			-4.349
229904.000			13.045			-4.348
230005.000			13.046			-4.349
230103.000			13.046			-4.349
230204.000			13.047			-4.349
230305.000			13.047			-4.349
230404.000			13.046			-4.349
230504.000			13.045			-4.348
230605.000			13.046			-4.349
230704.000			13.046			-4.349
230803.000			13.045			-4.348
230905.000			13.045			-4.348
231003.000			13.046			-4.349
231104.000			13.045			-4.348
231205.000			13.044			-4.348
231304.000			13.045			-4.348
231404.000			13.045			-4.348
231505.000			13.045			-4.348
231604.000			13.045			-4.348
231703.000			13.044			-4.348
231805.000			13.044			-4.348
231904.000			13.044			-4.348
232005.000			13.044			-4.348
232104.000			13.044			-4.348
232204.000			13.044			-4.348
232305.000			13.044			-4.348
232403.000			13.044			-4.348
232504.000			13.044			-4.348
232604.000			13.043			-4.348
232704.000			13.044			-4.348
232804.000			13.044			-4.348
232905.000			13.044			-4.348
233004.000			13.042			-4.347
233104.000			13.042			-4.347
233205.000			13.043			-4.348
233303.000			13.043			-4.348
233404.000			13.043			-4.348
233505.000			13.042			-4.347
233604.000			13.043			-4.348
233704.000			13.043			-4.348
233805.000			13.043			-4.348
233904.000			13.042			-4.347
234003.000			13.041			-4.347
234105.000			13.042			-4.347
234203.000			13.042			-4.347
234304.000			13.042			-4.347
234405.000			13.042			-4.347
234504.000			13.042			-4.347
234604.000			13.041			-4.347
234705.000			13.041			-4.347
234804.000			13.040			-4.347
234903.000			13.041			-4.347
235005.000			13.041			-4.347
235104.000			13.042			-4.347
235205.000			13.041			-4.347
235304.000			13.041			-4.347
235404.000			13.041			-4.347
235505.000			13.041			-4.347
235604.000			13.041			-4.347
235704.000			13.042			-4.347
235804.000			13.041			-4.347
235904.000			13.040			-4.347
236004.000			13.040			-4.347
236105.000			13.041			-4.347
236204.000			13.041			-4.347
236304.000			13.041			-4.347
236405.000			13.041			-4.347
236503.000			13.041			-4.347
236604.000			13.042			-4.347
236705.000			13.041			-4.347
236804.000			13.041			-4.347
236904.000			13.041			-4.347
237005.000			13.039			-4.346
237104.000			13.039			-4.346
237204.000			13.039			-4.346
237305.000			13.040			-4.347
237403.000			13.040			-4.347
237504.000			13.039			-4.346
237605.000			13.039			-4.346
237704.000			13.037			-4.346
237804.000			13.037			-4.346
237905.000			13.039			-4.346
238004.000			13.039			-4.346
238103.000			13.040			-4.347
238205.000			13.039			-4.346
238303.000			13.039			-4.346
238405.000			13.039			-4.346
238504.000			13.038			-4.346
238604.000			13.038			-4.346
238705.000			13.038			-4.346
238804.000			13.038			-4.346
238904.000			13.039			-4.346
239004.000			13.039			-4.346
239104.000			13.038			-4.346
239203.000			13.039			-4.346
239305.000			13.038			-4.346
239404.000			13.038			-4.346
239504.000			13.038			-4.346
239605.000			13.037			-4.346
239704.000			13.037			-4.346
239804.000			13.037			-4.346
239904.000			13.037			-4.346
240004.000			13.037			-4.346
240103.000			13.038			-4.346
240205.000			13.037			-4.346
240304.000			13.036			-4.345
240404.000			13.037			-4.346
240505.000			13.037			-4.346
240604.000			13.036			-4.345
240704.000			13.037			-4.346
240804.000			13.036			-4.345
240904.000			13.036			-4.345
241004.000			13.035			-4.345
241105.000			13.035			-4.345
241204.000			13.036			-4.345
241304.000			13.036			-4.345
241405.000			13.037			-4.346
241503.000			13.036			-4.345
241605.000			13.036			-4.345
241703.000			13.035			-4.345
241804.000			13.034			-4.345
241905.000			13.034			-4.345
242004.000			13.035			-4.345
242104.000			13.035			-4.345
242205.000			13.034			-4.345
242304.000			13.035			-4.345
242403.000			13.035			-4.345
242505.000			13.035			-4.345
242604.000			13.035			-4.345
242704.000			13.035			-4.345
242805.000			13.034			-4.345
242904.000			13.035			-4.345
243004.000			13.034			-4.345
243105.000			13.034			-4.345
243204.000			13.033			-4.344
243303.000			13.033			-4.344
243405.000			13.034			-4.345
243504.000			13.035			-4.345
243604.000			13.034			-4.345
243705.000			13.034			-4.345
243804.000			13.032			-4.344
243904.000			13.032			-4.344
244004.000			13.032			-4.344
244104.000			13.032			-4.344
244203.000			13.032			-4.344
244305.000			13.033			-4.344
244404.000			13.033			-4.344
244504.000			13.033			-4.344
244605.000			13.032			-4.344
244704.000			13.032			-4.344
244805.000			13.032			-4.344
244903.000			13.033			-4.344
245004.000			13.031			-4.344
245105.000			13.032			-4.344
245204.000			13.031			-4.344
245304.000			13.032			-4.344
245405.000			13.032			-4.344
245504.000			13.032			-4.344
245603.000			13.032			-4.344
245705.000			13.031			-4.344
245804.000			13.031			-4.344
245904.000			13.031			-4.344
246005.000			13.032			-4.344
246104.000			13.032			-4.344
246204.000			13.030			-4.343
246305.000			13.031			-4.344
246404.000			13.032			-4.344
246503.000			13.030			-4.343
246605.000			13.030			-4.343
246704.000			13.030			-4.343
246804.000			13.030			-4.343
246905.000			13.030			-4.343
247004.000			13.031			-4.344
247104.000			13.029			-4.343
247204.000			13.030			-4.343
247304.000			13.030			-4.343
247403.000			13.030			-4.343
247505.000			13.030			-4.343
247604.000			13.030			-4.343
247704.000			13.030			-4.343
247805.000			13.030			-4.343
247904.000			13.030			-4.343
248005.000			13.030			-4.343
248103.000			13.030			-4.343
248204.000			13.030			-4.343
248305.000			13.030			-4.343
248404.000			13.029			-4.343
248504.000			13.030			-4.343
248605.000			13.029			-4.343
248704.000			13.030			-4.343
248804.000			13.029			-4.343
248905.000			13.030			-4.343
249003.000			13.030			-4.343
249104.000			13.029			-4.343
249205.000			13.030			-4.343
249304.000			13.029			-4.343
249404.000			13.029			-4.343
249505.000			13.029			-4.343
249604.000			13.028			-4.343
249704.000			13.027			-4.342
249805.000			13.028			-4.343
249903.000			13.028			-4.343
250004.000			13.028			-4.343
250105.000			13.028			-4.343
250204.000			13.028			-4.343
250304.000			13.028			-4.343
250405.000			13.028			-4.343
250504.000			13.027			-4.342
250604.000			13.028			-4.343
250705.000			13.028			-4.343
250803.000			13.026			-4.342
250904.000			13.028			-4.343
251005.000			13.027			-4.342
251104.000			13.026			-4.342
251205.000			13.026			-4.342
251304.000			13.027			-4.342
251404.000			13.026			-4.342
251504.000			13.026			-4.342
251604.000			13.026			-4.342
251703.000			13.026			-4.342
251805.000			13.026			-4.342
251904.000			13.026			-4.342
252004.000			13.025			-4.342
252105.000			13.025			-4.342
252204.000			13.026			-4.342
252304.000			13.025			-4.342
252404.000			13.026			-4.342
252504.000			13.026			-4.342
252604.000			13.026			-4.342
252705.000			13.025			-4.342
252804.000			13.025			-4.342
252904.000			13.025			-4.342
253005.000			13.025			-4.342
253103.000			13.025			-4.342
253204.000			13.026			-4.342
253304.000			13.025			-4.342
253404.000			13.024			-4.341
253504.000			13.024			-4.341
253605.000			13.024			-4.341
253704.000			13.025			-4.342
253804.000			13.024			-4.341
253905.000			13.024			-4.341
254003.000			13.025			-4.342
254104.000			13.026			-4.342
254205.000			13.024			-4.341
254304.000			13.023			-4.341
254405.000			13.023			-4.341
254504.000			13.024			-4.341
254604.000			13.024			-4.341
254705.000			13.024			-4.341
254804.000			13.024			-4.341
254903.000			13.023			-4.341
255005.000			13.023			-4.341
255104.000			13.023			-4.341
255204.000			13.023			-4.341
255305.000			13.022			-4.341
255404.000			13.023			-4.341
255504.000			13.023			-4.341
255604.000			13.024			-4.341
255704.000			13.024			-4.341
255803.000			13.023			-4.341
255905.000			13.022			-4.341
256004.000			13.021			-4.340
256104.000			13.021			-4.340
256205.000			13.021			-4.340
256304.000			13.021			-4.340
256404.000			13.022			-4.341
256504.000			13.021			-4.340
256604.000			13.021			-4.340
256704.000			13.021			-4.340
256805.000			13.021			-4.340
256904.000			13.021			-4.340
257004.000			13.021			-4.340
257105.000			13.021			-4.340
257204.000			13.020			-4.340
257304.000			13.021			-4.340
257403.000			13.021			-4.340
257504.000			13.021			-4.340
257605.000			13.021			-4.340
257704.000			13.021			-4.340
257804.000			13.020			-4.340
257905.000			13.020			-4.340
258004.000			13.021			-4.340
258103.000			13.020			-4.340
258205.000			13.020			-4.340
258303.000			13.020			-4.340
258404.000			13.020			-4.340
258505.000			13.020			-4.340
258604.000			13.019			-4.340
258704.000			13.020			-4.340
258805.000			13.020			-4.340
258904.000			13.020			-4.340
259003.000			13.019			-4.340
259105.000			13.020			-4.340
259204.000			13.020			-4.340
259304.000			13.019			-4.340
259405.000			13.018			-4.339
259504.000			13.018			-4.339
259604.000			13.019			-4.340
259705.000			13.018			-4.339
259804.000			13.018			-4.339
259903.000			13.019			-4.340
260005.000			13.019			-4.340
260104.000			13.019			-4.340
260204.000			13.018			-4.339
260305.000			13.018			-4.339
260404.000			13.018			-4.339
260504.000			13.018			-4.339
260604.000			13.018			-4.339
260704.000			13.018			-4.339
260803.000			13.017			-4.339
260904.000			13.017			-4.339
261004.000			13.017			-4.339
261105.000			13.018			-4.339
261204.000			13.018			-4.339
261304.000			13.018			-4.339
261405.000			13.018			-4.339
261503.000			13.017			-4.339
261604.000			13.017			-4.339
261705.000			13.017			-4.339
261804.000			13.017			-4.339
261904.000			13.017			-4.339
262005.000			13.017			-4.339
262104.000			13.018			-4.339
262204.000			13.018			-4.339
262305.000			13.017			-4.339
262403.000			13.016			-4.339
262504.000			13.016			-4.339
262605.000			13.017			-4.339
262704.000			13.016			-4.339
262804.000			13.017			-4.339
262905.000			13.017			-4.339
263004.000			13.016			-4.339
263103.000			13.015			-4.338
263205.000			13.016			-4.339
263304.000			13.016			-4.339
263404.000			13.015			-4.338
263505.000			13.014			-4.338
263604.000			13.015			-4.338
263704.000			13.015			-4.338
263804.000			13.015			-4.338
263904.000			13.015			-4.338
264003.000			13.015			-4.338
264104.000			13.015			-4.338
264204.000			13.014			-4.338
264305.000			13.014			-4.338
264404.000			13.014			-4.338
264504.000			13.015			-4.338
264605.000			13.015			-4.338
264703.000			13.014			-4.338
264804.000			13.014			-4.338
264905.000			13.014			-4.338
265004.000			13.014			-4.338
265104.000			13.014			-4.338
265205.000			13.014			-4.338
265304.000			13.014			-4.338
265404.000			13.014			-4.338
265505.000			13.013			-4.338
265603.000			13.014			-4.338
265704.000			13.014			-4.338
265805.000			13.013			-4.338
265904.000			13.012			-4.337
266004.000			13.014			-4.338
266105.000			13.013			-4.338
266204.000			13.013			-4.338
266303.000			13.013			-4.338
266405.000			13.015			-4.338
266503.000			13.014			-4.338
266604.000			13.013			-4.338
266705.000			13.012			-4.337
266804.000			13.012			-4.337
266904.000			13.012			-4.337
267004.000			13.011			-4.337
267104.000			13.012			-4.337
267203.000			13.012			-4.337
267304.000			13.012			-4.337
267404.000			13.011			-4.337
267505.000			13.012			-4.337
267604.000			13.013			-4.338
267704.000			13.012			-4.337
267805.000			13.012			-4.337
267904.000			13.012			-4.337
268004.000			13.012			-4.337
268104.000			13.012			-4.337
268204.000			13.012			-4.337
268304.000			13.011			-4.337
268405.000			13.012			-4.337
268504.000			13.011			-4.337
268604.000			13.010			-4.337
268705.000			13.010			-4.337
268803.000			13.010			-4.337
268904.000			13.010			-4.337
269004.000			13.011			-4.337
269104.000			13.011			-4.337
269204.000			13.010			-4.337
269305.000			13.011			-4.337
269404.000			13.011			-4.337
269504.000			13.010			-4.337
269605.000			13.010			-4.337
269703.000			13.010			-4.337
269804.000			13.011			-4.337
269905.000			13.010			-4.337
270004.000			13.010			-4.337
270104.000			13.010			-4.337
270204.000			13.010			-4.337
270304.000			13.010			-4.337
270405.000			13.010			-4.337
270504.000			13.010			-4.337
270603.000			13.011			-4.337
270705.000			13.010			-4.337
270804.000			13.009			-4.336
270904.000			13.009			-4.336
271005.000			13.009			-4.336
271104.000			13.009			-4.336
271204.000			13.009			-4.336
271304.000			13.009			-4.336
271404.000			13.008			-4.336
271503.000			13.009			-4.336
271605.000			13.010			-4.337
271704.000			13.009			-4.336
271804.000			13.008			-4.336
271905.000			13.008			-4.336
272004.000			13.007			-4.336
272104.000			13.010			-4.337
272204.000			13.010			-4.337
272304.000			13.008			-4.336
272404.000			13.008			-4.336
272505.000			13.008			-4.336
272604.000			13.008			-4.336
272704.000			13.008			-4.336
272805.000			13.009			-4.336
272903.000			13.009			-4.336
273004.000			13.008			-4.336
273104.000			13.008			-4.336
273204.000			13.008			-4.336
273304.000			13.008			-4.336
273404.000			13.008			-4.336
273504.000			13.007			-4.336
273605.000			13.007			-4.336
273704.000			13.007			-4.336
273803.000			13.007			-4.336
273905.000			13.007			-4.336
274004.000			13.007			-4.336
274104.000			13.008			-4.336
274205.000			13.008			-4.336
274304.000			13.007			-4.336
274404.000			13.006			-4.335
274505.000			13.006			-4.335
274604.000			13.006			-4.335
274703.000			13.006			-4.335
274805.000			13.007			-4.336
274904.000			13.006			-4.335
275004.000			13.006			-4.335
275105.000			13.006			-4.335
275204.000			13.006			-4.335
275304.000			13.006			-4.335
275404.000			13.006			-4.335
275504.000			13.006			-4.335
275603.000			13.006			-4.335
275705.000			13.006			-4.335
275804.000			13.006			-4.335
275904.000			13.006			-4.335
276005.000			13.006			-4.335
276104.000			13.006			-4.335
276204.000			13.007			-4.336
276304.000			13.006			-4.335
276404.000			13.006			-4.335
276503.000			13.005			-4.335
276605.000			13.006			-4.335
276704.000			13.007			-4.336
276805.000			13.006			-4.335
276904.000			13.005			-4.335
277004.000			13.004			-4.335
277105.000			13.004			-4.335
277203.000			13.006			-4.335
277304.000			13.006			-4.335
277405.000			13.006			-4.335
277504.000			13.005			-4.335
277604.000			13.005			-4.335
277705.000			13.005			-4.335
277804.000			13.005			-4.335
277904.000			13.005			-4.335
278005.000			13.004			-4.335
278103.000			13.004			-4.335
278204.000			13.005			-4.335
278305.000			13.005			-4.335
278404.000			13.003			-4.334
278504.000			13.003			-4.334
278605.000			13.004			-4.335
278704.000			13.003			-4.334
278803.000			13.003			-4.334
278905.000			13.002			-4.334
279003.000			13.004			-4.335
279104.000			13.004			-4.335
279205.000			13.004			-4.335
279304.000			13.003			-4.334
279404.000			13.003			-4.334
279505.000			13.003			-4.334
279604.000			13.003			-4.334
279703.000			13.002			-4.334
279805.000			13.003			-4.334
279904.000			13.003			-4.334
280005.000			13.003			-4.334
280104.000			13.002			-4.334
280204.000			13.002			-4.334
280305.000			13.002			-4.334
280404.000			13.002			-4.334
280504.000			13.002			-4.334
280604.000			13.002			-4.334
280704.000			13.003			-4.334
280804.000			13.002			-4.334
280905.000			13.002			-4.334
281004.000			13.002			-4.334
281104.000			13.002			-4.334
281205.000			13.002			-4.334
281303.000			13.001			-4.334
281404.000			13.001			-4.334
281505.000			13.001			-4.334
281604.000			13.001			-4.334
281704.000			13.000			-4.333
281805.000			13.000			-4.333
281904.000			13.001			-4.334
282004.000			13.000			-4.333
282105.000			13.001			-4.334
282203.000			13.000			-4.333
282304.000			13.000			-4.333
282405.000			13.000			-4.333
282504.000			13.001			-4.334
282604.000			13.000			-4.333
282705.000			13.000			-4.333
282804.000			13.000			-4.333
282903.000			13.001			-4.334
283005.000			13.000			-4.333
283104.000			12.999			-4.333
283205.000			12.999			-4.333
283304.000			13.000			-4.333
283404.000			13.000			-4.333
283505.000			12.999			-4.333
283604.000			13.000			-4.333
283704.000			13.000			-4.333
283804.000			13.000			-4.333
283904.000			13.000			-4.333
284003.000			13.000			-4.333
284105.000			12.999			-4.333
284204.000			12.999			-4.333
284304.000			12.999			-4.333
284405.000			12.998			-4.333
284504.000			12.998			-4.333
284604.000			12.999			-4.333
284705.000			12.999			-4.333
284804.000			12.997			-4.332
284903.000			12.997			-4.332
285005.000			12.998			-4.333
285104.000			12.999			-4.333
285204.000			12.999			-4.333
285305.000			12.998			-4.333
285404.000			12.997			-4.332
285504.000			12.997			-4.332
285605.000			12.998			-4.333
285704.000			12.998			-4.333
285803.000			12.997			-4.332
285905.000			12.997			-4.332
286003.000			12.997			-4.332
286104.000			12.998			-4.333
286205.000			12.996			-4.332
286304.000			12.996			-4.332
286405.000			12.996			-4.332
286504.000			12.997			-4.332
286604.000			12.996			-4.332
286705.000			12.996			-4.332
286804.000			12.997			-4.332
286903.000			12.996			-4.332
287005.000			12.997			-4.332
287104.000			12.998			-4.333
287204.000			12.998			-4.333
287305.000			12.997			-4.332
287404.000			12.996			-4.332
287504.000			12.996			-4.332
287605.000			12.996			-4.332
287704.000			12.997			-4.332
287803.000			12.996			-4.332
287905.000			12.996			-4.332
288003.000			12.996			-4.332
288104.000			12.996			-4.332
288205.000			12.996			-4.332
288304.000			12.996			-4.332
288404.000			12.996			-4.332
288505.000			12.995			-4.332
288604.000			12.995			-4.332
288704.000			12.996			-4.332
288805.000			12.996			-4.332
288903.000			12.995			-4.332
289004.000			12.994			-4.331
289104.000			12.994			-4.331
289204.000			12.995			-4.332
289304.000			12.995			-4.332
289404.000			12.994			-4.331
289504.000			12.993			-4.331
289605.000			12.995			-4.332
289704.000			12.995			-4.332
289804.000			12.995			-4.332
289905.000			12.993			-4.331
290003.000			12.993			-4.331
290104.000			12.993			-4.331
290205.000			12.993			-4.331
290304.000			12.994			-4.331
290404.000			12.994			-4.331
290505.000			12.993			-4.331
290604.000			12.995			-4.332
290704.000			12.994			-4.331
290805.000			12.994			-4.331
290903.000			12.993			-4.331
291004.000			12.993			-4.331
291105.000			12.992			-4.331
291204.000			12.993			-4.331
291304.000			12.994			-4.331
291405.000			12.993			-4.331
291504.000			12.992			-4.331
291604.000			12.993			-4.331
291705.000			12.993			-4.331
291803.000			12.994			-4.331
291904.000			12.993			-4.331
292005.000			12.992			-4.331
292104.000			12.992			-4.331
292204.000			12.992			-4.331
292305.000			12.993			-4.331
292404.000			12.992			-4.331
292504.000			12.991			-4.330
292605.000			12.991			-4.330
292703.000			12.992			-4.331
292805.000			12.992			-4.331
292904.000			12.992			-4.331
293004.000			12.992			-4.331
293105.000			12.992			-4.331
293204.000			12.991			-4.330
293304.000			12.991			-4.330
293405.000			12.990			-4.330
293504.000			12.991			-4.330
293603.000			12.991			-4.330
293705.000			12.991			-4.330
293804.000			12.991			-4.330
293904.000			12.991			-4.330
294005.000			12.991			-4.330
294104.000			12.990			-4.330
294204.000			12.990			-4.330
294305.000			12.991			-4.330
294404.000			12.990			-4.330
294503.000			12.991			-4.330
294605.000			12.991			-4.330
294703.000			12.990			-4.330
294804.000			12.991			-4.330
294905.000			12.990			-4.330
295004.000			12.989			-4.330
295104.000			12.990			-4.330
295205.000			12.990			-4.330
295304.000			12.990			-4.330
295403.000			12.990			-4.330
295505.000			12.990			-4.330
295603.000			12.990			-4.330
295704.000			12.989			-4.330
295805.000			12.989			-4.330
295904.000			12.991			-4.330
296005.000			12.989			-4.330
296104.000			12.988			-4.329
296204.000			12.988			-4.329
296305.000			12.989			-4.330
296404.000			12.989			-4.330
296503.000			12.989			-4.330
296605.000			12.988			-4.329
296703.000			12.989			-4.330
296804.000			12.989			-4.330
296905.000			12.987			-4.329
297004.000			12.987			-4.329
297104.000			12.987			-4.329
297205.000			12.988			-4.329
297304.000			12.989			-4.330
297404.000			12.989			-4.330
297505.000			12.989			-4.330
297603.000			12.988			-4.329
297704.000			12.989			-4.330
297805.000			12.989			-4.330
297904.000			12.988			-4.329
298004.000			12.989			-4.330
298105.000			12.989			-4.330
298204.000			12.988			-4.329
298304.000			12.988			-4.329
298405.000			12.988			-4.329
298503.000			12.988			-4.329
298604.000			12.988			-4.329
298704.000			12.988			-4.329
298804.000			12.987			-4.329
298904.000			12.986			-4.329
299004.000			12.987			-4.329
299104.000			12.988			-4.329
299205.000			12.988			-4.329
299304.000			12.988			-4.329
299404.000			12.988			-4.329
299505.000			12.987			-4.329
299603.000			12.987			-4.329
299704.000			12.987			-4.329
299804.000			12.986			-4.329
299904.000			12.987			-4.329
