# Acquired on 25/01/2024 10:29:52 
# SPIDER: Creep_-3mm_GRPCNT1454A-3
# CREEP MEASUREMENT

# time [ms]		force [N]		stiffness [N/mm]
1.000			12.223			-4.074
105.000			12.966			-4.322
204.000			13.103			-4.368
304.000			12.988			-4.329
405.000			12.884			-4.295
504.000			12.744			-4.248
604.000			12.691			-4.230
704.000			12.644			-4.215
804.000			12.602			-4.201
904.000			12.566			-4.189
1005.000			12.533			-4.178
1104.000			12.502			-4.167
1203.000			12.476			-4.159
1305.000			12.425			-4.142
1404.000			12.403			-4.134
1504.000			12.382			-4.127
1605.000			12.362			-4.121
1704.000			12.344			-4.115
1804.000			12.327			-4.109
1904.000			12.310			-4.103
2004.000			12.279			-4.093
2104.000			12.265			-4.088
2205.000			12.251			-4.084
2304.000			12.238			-4.079
2403.000			12.225			-4.075
2505.000			12.212			-4.071
2604.000			12.200			-4.067
2704.000			12.180			-4.060
2805.000			12.168			-4.056
2904.000			12.157			-4.052
3005.000			12.147			-4.049
3103.000			12.137			-4.046
3204.000			12.126			-4.042
3305.000			12.118			-4.039
3404.000			12.102			-4.034
3504.000			12.094			-4.031
3604.000			12.086			-4.029
3704.000			12.077			-4.026
3804.000			12.070			-4.023
3905.000			12.062			-4.021
4004.000			12.055			-4.018
4104.000			12.047			-4.016
4205.000			12.033			-4.011
4303.000			12.026			-4.009
4404.000			12.020			-4.007
4505.000			12.014			-4.005
4604.000			12.007			-4.002
4704.000			12.001			-4.000
4804.000			11.995			-3.998
4904.000			11.983			-3.994
5004.000			11.978			-3.993
5105.000			11.972			-3.991
5204.000			11.966			-3.989
5304.000			11.961			-3.987
5405.000			11.955			-3.985
5503.000			11.949			-3.983
5604.000			11.941			-3.980
5705.000			11.936			-3.979
5804.000			11.930			-3.977
5904.000			11.926			-3.975
6005.000			11.921			-3.974
6104.000			11.916			-3.972
6203.000			11.912			-3.971
6304.000			11.908			-3.969
6404.000			11.899			-3.966
6505.000			11.895			-3.965
6604.000			11.891			-3.964
6703.000			11.886			-3.962
6805.000			11.881			-3.960
6904.000			11.876			-3.959
7004.000			11.874			-3.958
7105.000			11.865			-3.955
7204.000			11.862			-3.954
7304.000			11.858			-3.953
7404.000			11.854			-3.951
7504.000			11.851			-3.950
7604.000			11.846			-3.949
7705.000			11.842			-3.947
7804.000			11.836			-3.945
7904.000			11.833			-3.944
8005.000			11.830			-3.943
8103.000			11.826			-3.942
8204.000			11.822			-3.941
8305.000			11.818			-3.939
8404.000			11.815			-3.938
8504.000			11.810			-3.937
8604.000			11.806			-3.935
8704.000			11.804			-3.935
8804.000			11.801			-3.934
8905.000			11.798			-3.933
9004.000			11.794			-3.931
9104.000			11.791			-3.930
9205.000			11.787			-3.929
9303.000			11.782			-3.927
9405.000			11.779			-3.926
9504.000			11.775			-3.925
9604.000			11.773			-3.924
9705.000			11.770			-3.923
9804.000			11.768			-3.923
9904.000			11.765			-3.922
10004.000			11.760			-3.920
10104.000			11.757			-3.919
10204.000			11.754			-3.918
10305.000			11.752			-3.917
10404.000			11.748			-3.916
10503.000			11.745			-3.915
10605.000			11.744			-3.915
10704.000			11.738			-3.913
10804.000			11.736			-3.912
10905.000			11.734			-3.911
11004.000			11.731			-3.910
11104.000			11.729			-3.910
11204.000			11.727			-3.909
11304.000			11.723			-3.908
11404.000			11.718			-3.906
11505.000			11.715			-3.905
11604.000			11.714			-3.905
11704.000			11.711			-3.904
11805.000			11.709			-3.903
11903.000			11.707			-3.902
12004.000			11.705			-3.902
12105.000			11.703			-3.901
12204.000			11.698			-3.899
12304.000			11.696			-3.899
12404.000			11.693			-3.898
12504.000			11.691			-3.897
12605.000			11.689			-3.896
12704.000			11.688			-3.896
12804.000			11.685			-3.895
12905.000			11.680			-3.893
13004.000			11.678			-3.893
13103.000			11.676			-3.892
13205.000			11.675			-3.892
13304.000			11.672			-3.891
13404.000			11.669			-3.890
13505.000			11.668			-3.889
13604.000			11.665			-3.888
13704.000			11.663			-3.888
13804.000			11.660			-3.887
13904.000			11.658			-3.886
14004.000			11.656			-3.885
14105.000			11.654			-3.885
14204.000			11.653			-3.884
14304.000			11.651			-3.884
14405.000			11.647			-3.882
14503.000			11.645			-3.882
14604.000			11.643			-3.881
14705.000			11.642			-3.881
14804.000			11.640			-3.880
14904.000			11.637			-3.879
15005.000			11.635			-3.878
15104.000			11.632			-3.877
15203.000			11.630			-3.877
15305.000			11.628			-3.876
15404.000			11.626			-3.875
15504.000			11.625			-3.875
15605.000			11.624			-3.875
15704.000			11.622			-3.874
15805.000			11.620			-3.873
15903.000			11.617			-3.872
16004.000			11.615			-3.872
16105.000			11.613			-3.871
16204.000			11.611			-3.870
16304.000			11.610			-3.870
16404.000			11.609			-3.870
16504.000			11.607			-3.869
16604.000			11.604			-3.868
16705.000			11.603			-3.868
16804.000			11.601			-3.867
16904.000			11.599			-3.866
17005.000			11.598			-3.866
17103.000			11.596			-3.865
17204.000			11.594			-3.865
17305.000			11.590			-3.863
17404.000			11.589			-3.863
17504.000			11.587			-3.862
17605.000			11.586			-3.862
17704.000			11.584			-3.861
17803.000			11.583			-3.861
17905.000			11.582			-3.861
18004.000			11.579			-3.860
18104.000			11.578			-3.859
18205.000			11.576			-3.859
18304.000			11.575			-3.858
18404.000			11.573			-3.858
18504.000			11.572			-3.857
18604.000			11.570			-3.857
18704.000			11.567			-3.856
18805.000			11.566			-3.855
18904.000			11.564			-3.855
19005.000			11.563			-3.854
19104.000			11.562			-3.854
19203.000			11.561			-3.854
19305.000			11.560			-3.853
19404.000			11.558			-3.853
19504.000			11.555			-3.852
19605.000			11.553			-3.851
19704.000			11.551			-3.850
19804.000			11.550			-3.850
19904.000			11.550			-3.850
20004.000			11.549			-3.850
20104.000			11.548			-3.849
20205.000			11.545			-3.848
20304.000			11.544			-3.848
20404.000			11.542			-3.847
20505.000			11.541			-3.847
20604.000			11.541			-3.847
20704.000			11.540			-3.847
20805.000			11.538			-3.846
20904.000			11.536			-3.845
21004.000			11.533			-3.844
21104.000			11.531			-3.844
21204.000			11.531			-3.844
21304.000			11.530			-3.843
21405.000			11.528			-3.843
21504.000			11.527			-3.842
21604.000			11.526			-3.842
21705.000			11.523			-3.841
21803.000			11.523			-3.841
21904.000			11.522			-3.841
22005.000			11.520			-3.840
22104.000			11.518			-3.839
22205.000			11.518			-3.839
22303.000			11.517			-3.839
22404.000			11.514			-3.838
22505.000			11.513			-3.838
22604.000			11.511			-3.837
22704.000			11.511			-3.837
22805.000			11.511			-3.837
22904.000			11.509			-3.836
23003.000			11.507			-3.836
23105.000			11.505			-3.835
23204.000			11.504			-3.835
23304.000			11.504			-3.835
23405.000			11.502			-3.834
23504.000			11.501			-3.834
23604.000			11.500			-3.833
23704.000			11.500			-3.833
23804.000			11.497			-3.832
23904.000			11.496			-3.832
24005.000			11.495			-3.832
24104.000			11.494			-3.831
24204.000			11.493			-3.831
24305.000			11.492			-3.831
24403.000			11.491			-3.830
24504.000			11.490			-3.830
24605.000			11.487			-3.829
24704.000			11.484			-3.828
24804.000			11.483			-3.828
24904.000			11.483			-3.828
25004.000			11.483			-3.828
25104.000			11.481			-3.827
25205.000			11.480			-3.827
25304.000			11.478			-3.826
25405.000			11.477			-3.826
25504.000			11.475			-3.825
25603.000			11.475			-3.825
25705.000			11.473			-3.824
25804.000			11.473			-3.824
25904.000			11.473			-3.824
26005.000			11.470			-3.823
26104.000			11.469			-3.823
26204.000			11.467			-3.822
26304.000			11.466			-3.822
26404.000			11.465			-3.822
26504.000			11.465			-3.822
26605.000			11.464			-3.821
26704.000			11.463			-3.821
26804.000			11.461			-3.820
26905.000			11.460			-3.820
27003.000			11.459			-3.820
27104.000			11.459			-3.820
27205.000			11.458			-3.819
27304.000			11.456			-3.819
27404.000			11.454			-3.818
27505.000			11.453			-3.818
27604.000			11.452			-3.817
27703.000			11.452			-3.817
27805.000			11.451			-3.817
27904.000			11.451			-3.817
28004.000			11.449			-3.816
28105.000			11.448			-3.816
28204.000			11.447			-3.816
28304.000			11.445			-3.815
28404.000			11.445			-3.815
28504.000			11.444			-3.815
28605.000			11.443			-3.814
28704.000			11.443			-3.814
28804.000			11.443			-3.814
28904.000			11.441			-3.814
29004.000			11.439			-3.813
29103.000			11.440			-3.813
29205.000			11.439			-3.813
29304.000			11.438			-3.813
29404.000			11.437			-3.812
29505.000			11.437			-3.812
29603.000			11.435			-3.812
29704.000			11.433			-3.811
29805.000			11.432			-3.811
29904.000			11.432			-3.811
30004.000			11.431			-3.810
30105.000			11.431			-3.810
30204.000			11.430			-3.810
30303.000			11.429			-3.810
30405.000			11.426			-3.809
30504.000			11.425			-3.808
30604.000			11.424			-3.808
30705.000			11.423			-3.808
30804.000			11.422			-3.807
30904.000			11.421			-3.807
31004.000			11.422			-3.807
31104.000			11.419			-3.806
31204.000			11.418			-3.806
31305.000			11.417			-3.806
31404.000			11.416			-3.805
31503.000			11.416			-3.805
31605.000			11.415			-3.805
31704.000			11.413			-3.804
31805.000			11.412			-3.804
31904.000			11.411			-3.804
32004.000			11.409			-3.803
32105.000			11.409			-3.803
32203.000			11.409			-3.803
32304.000			11.408			-3.803
32405.000			11.407			-3.802
32504.000			11.406			-3.802
32604.000			11.404			-3.801
32705.000			11.403			-3.801
32804.000			11.402			-3.801
32903.000			11.402			-3.801
33005.000			11.401			-3.800
33104.000			11.400			-3.800
33204.000			11.399			-3.800
33305.000			11.399			-3.800
33403.000			11.398			-3.799
33504.000			11.398			-3.799
33605.000			11.396			-3.799
33704.000			11.395			-3.798
33804.000			11.395			-3.798
33905.000			11.395			-3.798
34004.000			11.394			-3.798
34103.000			11.393			-3.798
34205.000			11.392			-3.797
34304.000			11.391			-3.797
34404.000			11.389			-3.796
34505.000			11.388			-3.796
34604.000			11.387			-3.796
34704.000			11.387			-3.796
34804.000			11.386			-3.795
34904.000			11.386			-3.795
35005.000			11.384			-3.795
35104.000			11.384			-3.795
35204.000			11.384			-3.795
35305.000			11.383			-3.794
35404.000			11.382			-3.794
35503.000			11.381			-3.794
35605.000			11.379			-3.793
35704.000			11.379			-3.793
35804.000			11.378			-3.793
35905.000			11.377			-3.792
36004.000			11.376			-3.792
36104.000			11.375			-3.792
36204.000			11.374			-3.791
36304.000			11.373			-3.791
36404.000			11.372			-3.791
36505.000			11.371			-3.790
36604.000			11.371			-3.790
36703.000			11.370			-3.790
36805.000			11.369			-3.790
36904.000			11.368			-3.789
37004.000			11.367			-3.789
37105.000			11.366			-3.789
37204.000			11.366			-3.789
37304.000			11.365			-3.788
37404.000			11.364			-3.788
37504.000			11.363			-3.788
37604.000			11.362			-3.787
37705.000			11.361			-3.787
37804.000			11.359			-3.786
37904.000			11.360			-3.787
38005.000			11.359			-3.786
38103.000			11.359			-3.786
38205.000			11.358			-3.786
38304.000			11.356			-3.785
38404.000			11.356			-3.785
38505.000			11.355			-3.785
38604.000			11.354			-3.785
38704.000			11.353			-3.784
38804.000			11.352			-3.784
38904.000			11.351			-3.784
39004.000			11.350			-3.783
39105.000			11.349			-3.783
39204.000			11.349			-3.783
39303.000			11.349			-3.783
39405.000			11.348			-3.783
39504.000			11.347			-3.782
39604.000			11.346			-3.782
39705.000			11.346			-3.782
39804.000			11.345			-3.782
39904.000			11.344			-3.781
40004.000			11.343			-3.781
40104.000			11.342			-3.781
40204.000			11.342			-3.781
40305.000			11.342			-3.781
40404.000			11.340			-3.780
40504.000			11.339			-3.780
40605.000			11.338			-3.779
40703.000			11.337			-3.779
40804.000			11.337			-3.779
40905.000			11.337			-3.779
41004.000			11.337			-3.779
41104.000			11.335			-3.778
41205.000			11.333			-3.778
41304.000			11.333			-3.778
41403.000			11.332			-3.777
41504.000			11.331			-3.777
41604.000			11.330			-3.777
41705.000			11.330			-3.777
41804.000			11.330			-3.777
41903.000			11.329			-3.776
42005.000			11.328			-3.776
42104.000			11.329			-3.776
42204.000			11.328			-3.776
42305.000			11.328			-3.776
42404.000			11.327			-3.776
42504.000			11.327			-3.776
42604.000			11.326			-3.775
42704.000			11.326			-3.775
42804.000			11.324			-3.775
42905.000			11.324			-3.775
43004.000			11.323			-3.774
43104.000			11.323			-3.774
43205.000			11.321			-3.774
43303.000			11.321			-3.774
43404.000			11.320			-3.773
43505.000			11.320			-3.773
43604.000			11.318			-3.773
43704.000			11.317			-3.772
43804.000			11.318			-3.773
43904.000			11.319			-3.773
44004.000			11.318			-3.773
44105.000			11.316			-3.772
44204.000			11.316			-3.772
44304.000			11.316			-3.772
44405.000			11.315			-3.772
44503.000			11.315			-3.772
44605.000			11.314			-3.771
44704.000			11.313			-3.771
44804.000			11.314			-3.771
44905.000			11.312			-3.771
45004.000			11.311			-3.770
45104.000			11.311			-3.770
45204.000			11.310			-3.770
45304.000			11.311			-3.770
45404.000			11.310			-3.770
45505.000			11.309			-3.770
45604.000			11.308			-3.769
45703.000			11.307			-3.769
45805.000			11.307			-3.769
45904.000			11.306			-3.769
46004.000			11.305			-3.768
46105.000			11.305			-3.768
46204.000			11.304			-3.768
46304.000			11.304			-3.768
46404.000			11.304			-3.768
46504.000			11.303			-3.768
46604.000			11.302			-3.767
46705.000			11.302			-3.767
46804.000			11.300			-3.767
46904.000			11.299			-3.766
47005.000			11.300			-3.767
47103.000			11.299			-3.766
47204.000			11.297			-3.766
47305.000			11.296			-3.765
47404.000			11.295			-3.765
47504.000			11.296			-3.765
47605.000			11.296			-3.765
47704.000			11.294			-3.765
47803.000			11.294			-3.765
47904.000			11.292			-3.764
48004.000			11.292			-3.764
48105.000			11.292			-3.764
48204.000			11.291			-3.764
48304.000			11.290			-3.763
48405.000			11.289			-3.763
48503.000			11.288			-3.763
48604.000			11.288			-3.763
48705.000			11.287			-3.762
48804.000			11.287			-3.762
48904.000			11.287			-3.762
49005.000			11.285			-3.762
49104.000			11.284			-3.761
49203.000			11.284			-3.761
49305.000			11.283			-3.761
49404.000			11.281			-3.760
49504.000			11.282			-3.761
49605.000			11.282			-3.761
49704.000			11.280			-3.760
49804.000			11.280			-3.760
49904.000			11.280			-3.760
50004.000			11.279			-3.760
50104.000			11.278			-3.759
50205.000			11.277			-3.759
50304.000			11.277			-3.759
50403.000			11.278			-3.759
50505.000			11.277			-3.759
50604.000			11.276			-3.759
50704.000			11.275			-3.758
50805.000			11.273			-3.758
50904.000			11.273			-3.758
51005.000			11.273			-3.758
51103.000			11.273			-3.758
51204.000			11.271			-3.757
51305.000			11.271			-3.757
51404.000			11.270			-3.757
51504.000			11.270			-3.757
51605.000			11.267			-3.756
51704.000			11.268			-3.756
51803.000			11.268			-3.756
51905.000			11.266			-3.755
52004.000			11.265			-3.755
52104.000			11.265			-3.755
52205.000			11.265			-3.755
52304.000			11.265			-3.755
52404.000			11.264			-3.755
52504.000			11.264			-3.755
52604.000			11.263			-3.754
52704.000			11.263			-3.754
52805.000			11.262			-3.754
52904.000			11.261			-3.754
53003.000			11.260			-3.753
53105.000			11.260			-3.753
53204.000			11.258			-3.753
53304.000			11.259			-3.753
53405.000			11.257			-3.752
53504.000			11.256			-3.752
53604.000			11.257			-3.752
53704.000			11.256			-3.752
53804.000			11.255			-3.752
53904.000			11.255			-3.752
54005.000			11.255			-3.752
54104.000			11.254			-3.751
54205.000			11.253			-3.751
54304.000			11.253			-3.751
54403.000			11.252			-3.751
54505.000			11.251			-3.750
54604.000			11.251			-3.750
54704.000			11.251			-3.750
54805.000			11.251			-3.750
54904.000			11.250			-3.750
55004.000			11.249			-3.750
55104.000			11.248			-3.749
55204.000			11.248			-3.749
55304.000			11.248			-3.749
55405.000			11.248			-3.749
55504.000			11.247			-3.749
55603.000			11.246			-3.749
55705.000			11.246			-3.749
55804.000			11.245			-3.748
55904.000			11.244			-3.748
56005.000			11.244			-3.748
56104.000			11.243			-3.748
56204.000			11.243			-3.748
56304.000			11.242			-3.747
56404.000			11.241			-3.747
56504.000			11.240			-3.747
56605.000			11.240			-3.747
56704.000			11.239			-3.746
56804.000			11.241			-3.747
56905.000			11.240			-3.747
57003.000			11.239			-3.746
57104.000			11.239			-3.746
57205.000			11.239			-3.746
57304.000			11.238			-3.746
57405.000			11.237			-3.746
57504.000			11.237			-3.746
57604.000			11.237			-3.746
57704.000			11.234			-3.745
57804.000			11.234			-3.745
57904.000			11.234			-3.745
58005.000			11.234			-3.745
58104.000			11.234			-3.745
58204.000			11.234			-3.745
58305.000			11.233			-3.744
58403.000			11.232			-3.744
58504.000			11.232			-3.744
58605.000			11.232			-3.744
58704.000			11.231			-3.744
58804.000			11.230			-3.743
58904.000			11.230			-3.743
59004.000			11.229			-3.743
59104.000			11.227			-3.742
59205.000			11.227			-3.742
59304.000			11.228			-3.743
59404.000			11.228			-3.743
59505.000			11.227			-3.742
59603.000			11.226			-3.742
59704.000			11.226			-3.742
59805.000			11.224			-3.741
59904.000			11.225			-3.742
60004.000			11.225			-3.742
60105.000			11.225			-3.742
60204.000			11.224			-3.741
60303.000			11.222			-3.741
60405.000			11.222			-3.741
60504.000			11.222			-3.741
60605.000			11.221			-3.740
60704.000			11.220			-3.740
60804.000			11.220			-3.740
60905.000			11.219			-3.740
61003.000			11.219			-3.740
61104.000			11.219			-3.740
61205.000			11.218			-3.739
61304.000			11.217			-3.739
61404.000			11.218			-3.739
61504.000			11.217			-3.739
61604.000			11.216			-3.739
61704.000			11.216			-3.739
61805.000			11.216			-3.739
61904.000			11.214			-3.738
62004.000			11.214			-3.738
62105.000			11.214			-3.738
62203.000			11.214			-3.738
62304.000			11.214			-3.738
62405.000			11.213			-3.738
62504.000			11.212			-3.737
62604.000			11.211			-3.737
62705.000			11.211			-3.737
62804.000			11.210			-3.737
62903.000			11.210			-3.737
63005.000			11.210			-3.737
63104.000			11.209			-3.736
63204.000			11.209			-3.736
63305.000			11.208			-3.736
63403.000			11.209			-3.736
63504.000			11.207			-3.736
63605.000			11.206			-3.735
63704.000			11.206			-3.735
63805.000			11.206			-3.735
63904.000			11.205			-3.735
64004.000			11.204			-3.735
64104.000			11.204			-3.735
64204.000			11.204			-3.735
64304.000			11.204			-3.735
64405.000			11.203			-3.734
64504.000			11.203			-3.734
64603.000			11.202			-3.734
64705.000			11.200			-3.733
64804.000			11.200			-3.733
64904.000			11.200			-3.733
65005.000			11.200			-3.733
65104.000			11.200			-3.733
65204.000			11.199			-3.733
65304.000			11.199			-3.733
65404.000			11.198			-3.733
65504.000			11.198			-3.733
65605.000			11.198			-3.733
65704.000			11.198			-3.733
65804.000			11.198			-3.733
65905.000			11.196			-3.732
66003.000			11.195			-3.732
66104.000			11.194			-3.731
66205.000			11.195			-3.732
66304.000			11.194			-3.731
66404.000			11.193			-3.731
66505.000			11.193			-3.731
66604.000			11.192			-3.731
66703.000			11.192			-3.731
66805.000			11.192			-3.731
66904.000			11.191			-3.730
67005.000			11.191			-3.730
67104.000			11.192			-3.731
67204.000			11.191			-3.730
67305.000			11.190			-3.730
67403.000			11.190			-3.730
67504.000			11.190			-3.730
67605.000			11.189			-3.730
67704.000			11.188			-3.729
67804.000			11.188			-3.729
67905.000			11.187			-3.729
68004.000			11.186			-3.729
68103.000			11.186			-3.729
68205.000			11.187			-3.729
68304.000			11.185			-3.728
68404.000			11.185			-3.728
68505.000			11.185			-3.728
68604.000			11.185			-3.728
68704.000			11.184			-3.728
68804.000			11.183			-3.728
68904.000			11.183			-3.728
69004.000			11.183			-3.728
69105.000			11.183			-3.728
69204.000			11.182			-3.727
69304.000			11.181			-3.727
69405.000			11.181			-3.727
69503.000			11.180			-3.727
69604.000			11.180			-3.727
69705.000			11.180			-3.727
69804.000			11.181			-3.727
69904.000			11.180			-3.727
70005.000			11.179			-3.726
70104.000			11.179			-3.726
70203.000			11.178			-3.726
70304.000			11.178			-3.726
70404.000			11.178			-3.726
70505.000			11.177			-3.726
70604.000			11.177			-3.726
70704.000			11.177			-3.726
70805.000			11.176			-3.725
70903.000			11.176			-3.725
71004.000			11.175			-3.725
71105.000			11.175			-3.725
71204.000			11.174			-3.725
71304.000			11.173			-3.724
71405.000			11.173			-3.724
71504.000			11.173			-3.724
71603.000			11.172			-3.724
71705.000			11.172			-3.724
71804.000			11.172			-3.724
71904.000			11.173			-3.724
72005.000			11.171			-3.724
72104.000			11.171			-3.724
72204.000			11.170			-3.723
72304.000			11.170			-3.723
72404.000			11.169			-3.723
72504.000			11.168			-3.723
72605.000			11.168			-3.723
72704.000			11.168			-3.723
72804.000			11.168			-3.723
72905.000			11.169			-3.723
73003.000			11.167			-3.722
73104.000			11.166			-3.722
73205.000			11.166			-3.722
73304.000			11.165			-3.722
73405.000			11.164			-3.721
73504.000			11.165			-3.722
73604.000			11.166			-3.722
73704.000			11.164			-3.721
73804.000			11.163			-3.721
73904.000			11.163			-3.721
74005.000			11.162			-3.721
74104.000			11.162			-3.721
74203.000			11.161			-3.720
74305.000			11.160			-3.720
74404.000			11.160			-3.720
74504.000			11.161			-3.720
74605.000			11.160			-3.720
74704.000			11.160			-3.720
74804.000			11.160			-3.720
74904.000			11.158			-3.719
75004.000			11.158			-3.719
75104.000			11.157			-3.719
75205.000			11.157			-3.719
75304.000			11.157			-3.719
75404.000			11.156			-3.719
75505.000			11.156			-3.719
75603.000			11.156			-3.719
75704.000			11.156			-3.719
75805.000			11.155			-3.718
75904.000			11.155			-3.718
76004.000			11.154			-3.718
76105.000			11.154			-3.718
76204.000			11.154			-3.718
76303.000			11.153			-3.718
76405.000			11.153			-3.718
76504.000			11.153			-3.718
76605.000			11.153			-3.718
76704.000			11.153			-3.718
76804.000			11.152			-3.717
76905.000			11.151			-3.717
77003.000			11.150			-3.717
77104.000			11.151			-3.717
77205.000			11.151			-3.717
77304.000			11.151			-3.717
77404.000			11.151			-3.717
77505.000			11.149			-3.716
77604.000			11.149			-3.716
77703.000			11.147			-3.716
77805.000			11.148			-3.716
77904.000			11.148			-3.716
78004.000			11.148			-3.716
78105.000			11.148			-3.716
78204.000			11.147			-3.716
78304.000			11.147			-3.716
78404.000			11.146			-3.715
78504.000			11.146			-3.715
78604.000			11.146			-3.715
78705.000			11.145			-3.715
78804.000			11.145			-3.715
78904.000			11.145			-3.715
79005.000			11.144			-3.715
79103.000			11.144			-3.715
79204.000			11.143			-3.714
79305.000			11.143			-3.714
79404.000			11.142			-3.714
79504.000			11.142			-3.714
79605.000			11.142			-3.714
79704.000			11.142			-3.714
79803.000			11.142			-3.714
79904.000			11.141			-3.714
80004.000			11.141			-3.714
80105.000			11.141			-3.714
80204.000			11.141			-3.714
80304.000			11.140			-3.713
80405.000			11.140			-3.713
80503.000			11.138			-3.713
80604.000			11.138			-3.713
80705.000			11.137			-3.712
80804.000			11.138			-3.713
80904.000			11.137			-3.712
81004.000			11.137			-3.712
81104.000			11.137			-3.712
81204.000			11.137			-3.712
81305.000			11.136			-3.712
81404.000			11.136			-3.712
81504.000			11.136			-3.712
81605.000			11.134			-3.711
81703.000			11.133			-3.711
81804.000			11.134			-3.711
81905.000			11.134			-3.711
82004.000			11.133			-3.711
82104.000			11.132			-3.711
82205.000			11.131			-3.710
82304.000			11.130			-3.710
82403.000			11.129			-3.710
82505.000			11.130			-3.710
82604.000			11.130			-3.710
82704.000			11.130			-3.710
82805.000			11.129			-3.710
82904.000			11.129			-3.710
83005.000			11.128			-3.709
83103.000			11.128			-3.709
83204.000			11.127			-3.709
83305.000			11.127			-3.709
83404.000			11.127			-3.709
83504.000			11.128			-3.709
83604.000			11.127			-3.709
83704.000			11.126			-3.709
83804.000			11.126			-3.709
83905.000			11.127			-3.709
84004.000			11.125			-3.708
84104.000			11.124			-3.708
84205.000			11.125			-3.708
84303.000			11.125			-3.708
84404.000			11.124			-3.708
84505.000			11.123			-3.708
84604.000			11.122			-3.707
84704.000			11.121			-3.707
84805.000			11.122			-3.707
84904.000			11.122			-3.707
85003.000			11.120			-3.707
85105.000			11.121			-3.707
85204.000			11.121			-3.707
85304.000			11.121			-3.707
85405.000			11.121			-3.707
85504.000			11.120			-3.707
85604.000			11.119			-3.706
85704.000			11.119			-3.706
85804.000			11.120			-3.707
85904.000			11.119			-3.706
86005.000			11.119			-3.706
86104.000			11.119			-3.706
86205.000			11.119			-3.706
86304.000			11.118			-3.706
86403.000			11.118			-3.706
86505.000			11.118			-3.706
86604.000			11.117			-3.706
86704.000			11.116			-3.705
86805.000			11.117			-3.706
86904.000			11.117			-3.706
87004.000			11.116			-3.705
87104.000			11.115			-3.705
87204.000			11.115			-3.705
87304.000			11.115			-3.705
87405.000			11.114			-3.705
87504.000			11.114			-3.705
87604.000			11.115			-3.705
87705.000			11.113			-3.704
87803.000			11.113			-3.704
87904.000			11.113			-3.704
88005.000			11.112			-3.704
88104.000			11.112			-3.704
88204.000			11.113			-3.704
88304.000			11.113			-3.704
88404.000			11.112			-3.704
88503.000			11.112			-3.704
88605.000			11.112			-3.704
88704.000			11.112			-3.704
88804.000			11.111			-3.704
88905.000			11.110			-3.703
89003.000			11.111			-3.704
89104.000			11.111			-3.704
89205.000			11.110			-3.703
89304.000			11.110			-3.703
89405.000			11.110			-3.703
89504.000			11.110			-3.703
89604.000			11.109			-3.703
89704.000			11.109			-3.703
89804.000			11.109			-3.703
89904.000			11.108			-3.703
90005.000			11.107			-3.702
90104.000			11.107			-3.702
90204.000			11.108			-3.703
90305.000			11.107			-3.702
90403.000			11.106			-3.702
90504.000			11.106			-3.702
90605.000			11.106			-3.702
90704.000			11.105			-3.702
90804.000			11.105			-3.702
90905.000			11.106			-3.702
91004.000			11.105			-3.702
91103.000			11.104			-3.701
91205.000			11.104			-3.701
91304.000			11.103			-3.701
91404.000			11.103			-3.701
91505.000			11.104			-3.701
91604.000			11.103			-3.701
91704.000			11.103			-3.701
91804.000			11.102			-3.701
91904.000			11.102			-3.701
92004.000			11.103			-3.701
92105.000			11.103			-3.701
92204.000			11.102			-3.701
92303.000			11.100			-3.700
92405.000			11.101			-3.700
92504.000			11.101			-3.700
92605.000			11.101			-3.700
92704.000			11.101			-3.700
92804.000			11.100			-3.700
92905.000			11.100			-3.700
93003.000			11.100			-3.700
93104.000			11.099			-3.700
93205.000			11.099			-3.700
93304.000			11.100			-3.700
93404.000			11.099			-3.700
93505.000			11.098			-3.699
93604.000			11.098			-3.699
93703.000			11.098			-3.699
93805.000			11.097			-3.699
93904.000			11.096			-3.699
94004.000			11.095			-3.698
94105.000			11.095			-3.698
94204.000			11.095			-3.698
94304.000			11.095			-3.698
94404.000			11.095			-3.698
94504.000			11.094			-3.698
94604.000			11.092			-3.697
94705.000			11.092			-3.697
94804.000			11.093			-3.698
94904.000			11.093			-3.698
95005.000			11.091			-3.697
95103.000			11.092			-3.697
95204.000			11.091			-3.697
95305.000			11.090			-3.697
95404.000			11.090			-3.697
95504.000			11.090			-3.697
95605.000			11.089			-3.696
95704.000			11.088			-3.696
95803.000			11.087			-3.696
95904.000			11.087			-3.696
96004.000			11.088			-3.696
96105.000			11.088			-3.696
96204.000			11.088			-3.696
96304.000			11.087			-3.696
96405.000			11.087			-3.696
96503.000			11.087			-3.696
96604.000			11.086			-3.695
96705.000			11.086			-3.695
96804.000			11.086			-3.695
96904.000			11.086			-3.695
97005.000			11.085			-3.695
97104.000			11.085			-3.695
97203.000			11.085			-3.695
97305.000			11.085			-3.695
97404.000			11.085			-3.695
97504.000			11.084			-3.695
97605.000			11.084			-3.695
97704.000			11.083			-3.694
97804.000			11.083			-3.694
97904.000			11.082			-3.694
98004.000			11.083			-3.694
98104.000			11.083			-3.694
98205.000			11.082			-3.694
98304.000			11.082			-3.694
98404.000			11.081			-3.694
98505.000			11.080			-3.693
98603.000			11.080			-3.693
98704.000			11.080			-3.693
98805.000			11.080			-3.693
98904.000			11.079			-3.693
99005.000			11.079			-3.693
99104.000			11.080			-3.693
99204.000			11.079			-3.693
99304.000			11.078			-3.693
99404.000			11.077			-3.692
99504.000			11.077			-3.692
99605.000			11.077			-3.692
99704.000			11.077			-3.692
99804.000			11.077			-3.692
99905.000			11.077			-3.692
100003.000			11.076			-3.692
100104.000			11.075			-3.692
100205.000			11.075			-3.692
100304.000			11.075			-3.692
100404.000			11.075			-3.692
100505.000			11.075			-3.692
100604.000			11.074			-3.691
100703.000			11.073			-3.691
100805.000			11.074			-3.691
100904.000			11.073			-3.691
101004.000			11.072			-3.691
101105.000			11.072			-3.691
101204.000			11.072			-3.691
101304.000			11.072			-3.691
101404.000			11.071			-3.690
101504.000			11.071			-3.690
101604.000			11.070			-3.690
101705.000			11.070			-3.690
101804.000			11.071			-3.690
101904.000			11.070			-3.690
102005.000			11.069			-3.690
102103.000			11.069			-3.690
102205.000			11.069			-3.690
102304.000			11.070			-3.690
102404.000			11.071			-3.690
102505.000			11.069			-3.690
102604.000			11.068			-3.689
102704.000			11.068			-3.689
102804.000			11.069			-3.690
102904.000			11.068			-3.689
103004.000			11.068			-3.689
103105.000			11.067			-3.689
103204.000			11.067			-3.689
103304.000			11.067			-3.689
103405.000			11.067			-3.689
103503.000			11.066			-3.689
103604.000			11.065			-3.688
103705.000			11.065			-3.688
103804.000			11.065			-3.688
103904.000			11.065			-3.688
104005.000			11.065			-3.688
104104.000			11.065			-3.688
104203.000			11.064			-3.688
104305.000			11.063			-3.688
104404.000			11.064			-3.688
104504.000			11.063			-3.688
104605.000			11.064			-3.688
104704.000			11.063			-3.688
104804.000			11.062			-3.687
104904.000			11.062			-3.687
105004.000			11.062			-3.687
105104.000			11.062			-3.687
105205.000			11.061			-3.687
105304.000			11.060			-3.687
105405.000			11.061			-3.687
105504.000			11.060			-3.687
105603.000			11.060			-3.687
105705.000			11.060			-3.687
105804.000			11.058			-3.686
105904.000			11.058			-3.686
106005.000			11.058			-3.686
106104.000			11.057			-3.686
106204.000			11.059			-3.686
106304.000			11.057			-3.686
106404.000			11.058			-3.686
106504.000			11.057			-3.686
106605.000			11.056			-3.685
106704.000			11.055			-3.685
106804.000			11.054			-3.685
106905.000			11.055			-3.685
107003.000			11.054			-3.685
107104.000			11.054			-3.685
107205.000			11.053			-3.684
107304.000			11.053			-3.684
107404.000			11.053			-3.684
107505.000			11.052			-3.684
107604.000			11.052			-3.684
107703.000			11.053			-3.684
107805.000			11.051			-3.684
107904.000			11.052			-3.684
108004.000			11.052			-3.684
108105.000			11.052			-3.684
108204.000			11.052			-3.684
108304.000			11.051			-3.684
108404.000			11.050			-3.683
108504.000			11.050			-3.683
108605.000			11.049			-3.683
108704.000			11.049			-3.683
108804.000			11.049			-3.683
108905.000			11.049			-3.683
109004.000			11.049			-3.683
109103.000			11.048			-3.683
109205.000			11.048			-3.683
109304.000			11.048			-3.683
109404.000			11.047			-3.682
109505.000			11.047			-3.682
109604.000			11.047			-3.682
109704.000			11.046			-3.682
109804.000			11.047			-3.682
109904.000			11.046			-3.682
110004.000			11.045			-3.682
110105.000			11.045			-3.682
110204.000			11.047			-3.682
110304.000			11.046			-3.682
110405.000			11.045			-3.682
110503.000			11.044			-3.681
110604.000			11.044			-3.681
110705.000			11.044			-3.681
110804.000			11.043			-3.681
110904.000			11.044			-3.681
111005.000			11.043			-3.681
111104.000			11.042			-3.681
111203.000			11.043			-3.681
111305.000			11.043			-3.681
111404.000			11.043			-3.681
111504.000			11.043			-3.681
111605.000			11.042			-3.681
111704.000			11.041			-3.680
111805.000			11.041			-3.680
111903.000			11.042			-3.681
112004.000			11.043			-3.681
112105.000			11.042			-3.681
112204.000			11.041			-3.680
112304.000			11.041			-3.680
112404.000			11.041			-3.680
112504.000			11.041			-3.680
112604.000			11.041			-3.680
112705.000			11.041			-3.680
112804.000			11.041			-3.680
112904.000			11.040			-3.680
113005.000			11.039			-3.680
113103.000			11.039			-3.680
113204.000			11.038			-3.679
113305.000			11.038			-3.679
113404.000			11.038			-3.679
113504.000			11.037			-3.679
113605.000			11.037			-3.679
113704.000			11.037			-3.679
113803.000			11.037			-3.679
113905.000			11.036			-3.679
114004.000			11.035			-3.678
114104.000			11.035			-3.678
114205.000			11.035			-3.678
114304.000			11.035			-3.678
114404.000			11.035			-3.678
114504.000			11.034			-3.678
114604.000			11.034			-3.678
114704.000			11.033			-3.678
114805.000			11.034			-3.678
114904.000			11.032			-3.677
115005.000			11.032			-3.677
115104.000			11.032			-3.677
115203.000			11.033			-3.678
115305.000			11.034			-3.678
115404.000			11.033			-3.678
115504.000			11.032			-3.677
115605.000			11.032			-3.677
115704.000			11.032			-3.677
115804.000			11.032			-3.677
115904.000			11.032			-3.677
116004.000			11.032			-3.677
116104.000			11.032			-3.677
116205.000			11.032			-3.677
116304.000			11.031			-3.677
116403.000			11.031			-3.677
116505.000			11.031			-3.677
116604.000			11.031			-3.677
116704.000			11.031			-3.677
116805.000			11.030			-3.677
116904.000			11.030			-3.677
117004.000			11.030			-3.677
117104.000			11.030			-3.677
117204.000			11.029			-3.676
117303.000			11.029			-3.676
117405.000			11.029			-3.676
117504.000			11.029			-3.676
117604.000			11.028			-3.676
117705.000			11.027			-3.676
117804.000			11.028			-3.676
117904.000			11.028			-3.676
118004.000			11.027			-3.676
118104.000			11.027			-3.676
118205.000			11.026			-3.675
118304.000			11.026			-3.675
118404.000			11.026			-3.675
118505.000			11.026			-3.675
118604.000			11.026			-3.675
118703.000			11.026			-3.675
118805.000			11.026			-3.675
118904.000			11.026			-3.675
119004.000			11.026			-3.675
119105.000			11.028			-3.676
119204.000			11.028			-3.676
119304.000			11.027			-3.676
119404.000			11.026			-3.675
119504.000			11.025			-3.675
119604.000			11.025			-3.675
119705.000			11.024			-3.675
119804.000			11.024			-3.675
119904.000			11.025			-3.675
120005.000			11.025			-3.675
120103.000			11.024			-3.675
120204.000			11.022			-3.674
120305.000			11.023			-3.674
120404.000			11.023			-3.674
120504.000			11.023			-3.674
120604.000			11.022			-3.674
120704.000			11.021			-3.674
120804.000			11.021			-3.674
120905.000			11.021			-3.674
121004.000			11.021			-3.674
121104.000			11.021			-3.674
121205.000			11.021			-3.674
121303.000			11.020			-3.673
121405.000			11.019			-3.673
121504.000			11.019			-3.673
121604.000			11.020			-3.673
121705.000			11.019			-3.673
121804.000			11.018			-3.673
121904.000			11.018			-3.673
122004.000			11.018			-3.673
122104.000			11.019			-3.673
122204.000			11.017			-3.672
122305.000			11.016			-3.672
122404.000			11.017			-3.672
122504.000			11.017			-3.672
122605.000			11.016			-3.672
122703.000			11.016			-3.672
122804.000			11.016			-3.672
122905.000			11.016			-3.672
123004.000			11.016			-3.672
123104.000			11.015			-3.672
123205.000			11.015			-3.672
123304.000			11.015			-3.672
123403.000			11.014			-3.671
123505.000			11.014			-3.671
123604.000			11.014			-3.671
123704.000			11.015			-3.672
123805.000			11.014			-3.671
123904.000			11.013			-3.671
124004.000			11.014			-3.671
124104.000			11.014			-3.671
124204.000			11.013			-3.671
124304.000			11.013			-3.671
124405.000			11.012			-3.671
124504.000			11.012			-3.671
124603.000			11.012			-3.671
124704.000			11.012			-3.671
124803.000			11.011			-3.670
124905.000			11.011			-3.670
125004.000			11.010			-3.670
125104.000			11.009			-3.670
125205.000			11.009			-3.670
125303.000			11.010			-3.670
125404.000			11.010			-3.670
125505.000			11.010			-3.670
125604.000			11.009			-3.670
125704.000			11.009			-3.670
125805.000			11.008			-3.669
125904.000			11.007			-3.669
126003.000			11.008			-3.669
126105.000			11.008			-3.669
126204.000			11.008			-3.669
126304.000			11.008			-3.669
126405.000			11.008			-3.669
126504.000			11.007			-3.669
126604.000			11.008			-3.669
126704.000			11.009			-3.670
126804.000			11.008			-3.669
126904.000			11.007			-3.669
127005.000			11.007			-3.669
127104.000			11.007			-3.669
127204.000			11.007			-3.669
127305.000			11.006			-3.669
127403.000			11.007			-3.669
127504.000			11.007			-3.669
127605.000			11.006			-3.669
127704.000			11.006			-3.669
127805.000			11.005			-3.668
127904.000			11.006			-3.669
128004.000			11.004			-3.668
128104.000			11.004			-3.668
128204.000			11.003			-3.668
128304.000			11.003			-3.668
128405.000			11.003			-3.668
128504.000			11.002			-3.667
128604.000			11.003			-3.668
128705.000			11.001			-3.667
128803.000			11.001			-3.667
128904.000			11.002			-3.667
129005.000			11.002			-3.667
129104.000			11.001			-3.667
129204.000			11.001			-3.667
129305.000			11.001			-3.667
129404.000			11.000			-3.667
129503.000			10.999			-3.666
129605.000			10.999			-3.666
129704.000			11.000			-3.667
129804.000			10.999			-3.666
129905.000			10.999			-3.666
130004.000			10.999			-3.666
130104.000			10.999			-3.666
130205.000			10.998			-3.666
130304.000			10.999			-3.666
130403.000			10.999			-3.666
130505.000			10.998			-3.666
130604.000			10.997			-3.666
130704.000			10.997			-3.666
130805.000			10.996			-3.665
130904.000			10.997			-3.666
131005.000			10.997			-3.666
131103.000			10.995			-3.665
131204.000			10.995			-3.665
131305.000			10.995			-3.665
131404.000			10.995			-3.665
131504.000			10.996			-3.665
131605.000			10.995			-3.665
131704.000			10.995			-3.665
131804.000			10.995			-3.665
131905.000			10.993			-3.664
132003.000			10.994			-3.665
132104.000			10.994			-3.665
132205.000			10.994			-3.665
132304.000			10.994			-3.665
132404.000			10.993			-3.664
132505.000			10.992			-3.664
132604.000			10.992			-3.664
132704.000			10.992			-3.664
132805.000			10.992			-3.664
132903.000			10.992			-3.664
133004.000			10.991			-3.664
133105.000			10.992			-3.664
133204.000			10.991			-3.664
133304.000			10.990			-3.663
133405.000			10.989			-3.663
133504.000			10.989			-3.663
133603.000			10.990			-3.663
133705.000			10.991			-3.664
133803.000			10.989			-3.663
133904.000			10.988			-3.663
134005.000			10.989			-3.663
134104.000			10.989			-3.663
134205.000			10.988			-3.663
134304.000			10.988			-3.663
134404.000			10.989			-3.663
134504.000			10.989			-3.663
134604.000			10.988			-3.663
134703.000			10.989			-3.663
134805.000			10.988			-3.663
134904.000			10.987			-3.662
135004.000			10.987			-3.662
135105.000			10.987			-3.662
135204.000			10.987			-3.662
135304.000			10.985			-3.662
135404.000			10.985			-3.662
135504.000			10.986			-3.662
135603.000			10.986			-3.662
135705.000			10.986			-3.662
135804.000			10.985			-3.662
135904.000			10.985			-3.662
136005.000			10.985			-3.662
136104.000			10.984			-3.661
136204.000			10.984			-3.661
136304.000			10.984			-3.661
136404.000			10.984			-3.661
136503.000			10.983			-3.661
136605.000			10.984			-3.661
136704.000			10.983			-3.661
136804.000			10.983			-3.661
136905.000			10.983			-3.661
137004.000			10.982			-3.661
137104.000			10.982			-3.661
137204.000			10.983			-3.661
137304.000			10.982			-3.661
137403.000			10.982			-3.661
137504.000			10.981			-3.660
137604.000			10.981			-3.660
137705.000			10.981			-3.660
137804.000			10.980			-3.660
137904.000			10.980			-3.660
138005.000			10.980			-3.660
138104.000			10.979			-3.660
138204.000			10.979			-3.660
138304.000			10.980			-3.660
138404.000			10.979			-3.660
138504.000			10.980			-3.660
138605.000			10.978			-3.659
138704.000			10.978			-3.659
138804.000			10.978			-3.659
138905.000			10.976			-3.659
139004.000			10.976			-3.659
139104.000			10.976			-3.659
139204.000			10.977			-3.659
139304.000			10.977			-3.659
139404.000			10.977			-3.659
139505.000			10.977			-3.659
139604.000			10.976			-3.659
139704.000			10.976			-3.659
139805.000			10.976			-3.659
139904.000			10.976			-3.659
140004.000			10.974			-3.658
140104.000			10.976			-3.659
140204.000			10.976			-3.659
140304.000			10.975			-3.658
140405.000			10.975			-3.658
140504.000			10.975			-3.658
140605.000			10.975			-3.658
140704.000			10.974			-3.658
140804.000			10.974			-3.658
140905.000			10.974			-3.658
141003.000			10.974			-3.658
141104.000			10.974			-3.658
141205.000			10.973			-3.658
141304.000			10.973			-3.658
141404.000			10.972			-3.657
141505.000			10.972			-3.657
141604.000			10.972			-3.657
141704.000			10.972			-3.657
141805.000			10.972			-3.657
141903.000			10.972			-3.657
142004.000			10.972			-3.657
142105.000			10.971			-3.657
142204.000			10.969			-3.656
142304.000			10.970			-3.657
142405.000			10.971			-3.657
142504.000			10.971			-3.657
142603.000			10.970			-3.657
142705.000			10.970			-3.657
142803.000			10.970			-3.657
142904.000			10.970			-3.657
143005.000			10.969			-3.656
143104.000			10.970			-3.657
143204.000			10.970			-3.657
143305.000			10.970			-3.657
143404.000			10.970			-3.657
143503.000			10.969			-3.656
143605.000			10.969			-3.656
143703.000			10.969			-3.656
143805.000			10.969			-3.656
143904.000			10.968			-3.656
144004.000			10.968			-3.656
144105.000			10.967			-3.656
144204.000			10.967			-3.656
144304.000			10.968			-3.656
144404.000			10.968			-3.656
144504.000			10.967			-3.656
144603.000			10.966			-3.655
144705.000			10.966			-3.655
144804.000			10.966			-3.655
144904.000			10.967			-3.656
145005.000			10.966			-3.655
145104.000			10.965			-3.655
145204.000			10.965			-3.655
145304.000			10.966			-3.655
145404.000			10.965			-3.655
145503.000			10.964			-3.655
145605.000			10.965			-3.655
145704.000			10.965			-3.655
145804.000			10.965			-3.655
145905.000			10.964			-3.655
146004.000			10.964			-3.655
146104.000			10.964			-3.655
146204.000			10.963			-3.654
146304.000			10.962			-3.654
146403.000			10.962			-3.654
146505.000			10.963			-3.654
146604.000			10.963			-3.654
146704.000			10.962			-3.654
146805.000			10.962			-3.654
146904.000			10.962			-3.654
147005.000			10.962			-3.654
147104.000			10.962			-3.654
147204.000			10.962			-3.654
147304.000			10.962			-3.654
147404.000			10.961			-3.654
147504.000			10.960			-3.653
147605.000			10.961			-3.654
147704.000			10.960			-3.653
147804.000			10.960			-3.653
147905.000			10.961			-3.654
148004.000			10.960			-3.653
148104.000			10.959			-3.653
148204.000			10.959			-3.653
148304.000			10.959			-3.653
148404.000			10.961			-3.654
148505.000			10.961			-3.654
148604.000			10.960			-3.653
148704.000			10.959			-3.653
148805.000			10.958			-3.653
148904.000			10.958			-3.653
149004.000			10.958			-3.653
149104.000			10.958			-3.653
149204.000			10.958			-3.653
149304.000			10.958			-3.653
149405.000			10.957			-3.652
149504.000			10.958			-3.653
149604.000			10.957			-3.652
149705.000			10.957			-3.652
149804.000			10.957			-3.652
149904.000			10.957			-3.652
150004.000			10.957			-3.652
150104.000			10.956			-3.652
150205.000			10.956			-3.652
150304.000			10.955			-3.652
150404.000			10.955			-3.652
150505.000			10.955			-3.652
150604.000			10.955			-3.652
150704.000			10.955			-3.652
150805.000			10.955			-3.652
150903.000			10.954			-3.651
151004.000			10.954			-3.651
151105.000			10.954			-3.651
151204.000			10.954			-3.651
151304.000			10.954			-3.651
151405.000			10.954			-3.651
151504.000			10.954			-3.651
151604.000			10.952			-3.651
151705.000			10.953			-3.651
151803.000			10.952			-3.651
151904.000			10.953			-3.651
152005.000			10.953			-3.651
152104.000			10.952			-3.651
152204.000			10.952			-3.651
152305.000			10.952			-3.651
152404.000			10.952			-3.651
152504.000			10.951			-3.650
152605.000			10.952			-3.651
152703.000			10.951			-3.650
152804.000			10.950			-3.650
152905.000			10.951			-3.650
153004.000			10.950			-3.650
153104.000			10.949			-3.650
153205.000			10.950			-3.650
153304.000			10.950			-3.650
153405.000			10.950			-3.650
153504.000			10.949			-3.650
153603.000			10.949			-3.650
153705.000			10.949			-3.650
153804.000			10.949			-3.650
153904.000			10.949			-3.650
154005.000			10.948			-3.649
154104.000			10.949			-3.650
154204.000			10.950			-3.650
154305.000			10.948			-3.649
154404.000			10.948			-3.649
154503.000			10.948			-3.649
154605.000			10.947			-3.649
154704.000			10.947			-3.649
154804.000			10.948			-3.649
154905.000			10.948			-3.649
155004.000			10.947			-3.649
155104.000			10.947			-3.649
155205.000			10.948			-3.649
155304.000			10.946			-3.649
155403.000			10.946			-3.649
155505.000			10.945			-3.648
155604.000			10.946			-3.649
155704.000			10.945			-3.648
155805.000			10.945			-3.648
155904.000			10.946			-3.649
156004.000			10.945			-3.648
156105.000			10.945			-3.648
156204.000			10.945			-3.648
156303.000			10.945			-3.648
156405.000			10.945			-3.648
156504.000			10.944			-3.648
156605.000			10.944			-3.648
156704.000			10.944			-3.648
156804.000			10.944			-3.648
156905.000			10.943			-3.648
157004.000			10.943			-3.648
157104.000			10.943			-3.648
157204.000			10.944			-3.648
157304.000			10.944			-3.648
157404.000			10.943			-3.648
157505.000			10.942			-3.647
157604.000			10.943			-3.648
157704.000			10.942			-3.647
157805.000			10.942			-3.647
157904.000			10.942			-3.647
158004.000			10.942			-3.647
158104.000			10.941			-3.647
158204.000			10.941			-3.647
158304.000			10.942			-3.647
158405.000			10.941			-3.647
158504.000			10.941			-3.647
158604.000			10.940			-3.647
158705.000			10.940			-3.647
158804.000			10.940			-3.647
158904.000			10.939			-3.646
159004.000			10.938			-3.646
159104.000			10.938			-3.646
159204.000			10.939			-3.646
159305.000			10.939			-3.646
159404.000			10.937			-3.646
159504.000			10.938			-3.646
159605.000			10.939			-3.646
159704.000			10.938			-3.646
159805.000			10.938			-3.646
159903.000			10.938			-3.646
160004.000			10.938			-3.646
160104.000			10.937			-3.646
160204.000			10.936			-3.645
160304.000			10.936			-3.645
160405.000			10.936			-3.645
160504.000			10.936			-3.645
160604.000			10.936			-3.645
160705.000			10.935			-3.645
160803.000			10.936			-3.645
160904.000			10.936			-3.645
161004.000			10.935			-3.645
161104.000			10.935			-3.645
161204.000			10.935			-3.645
161305.000			10.936			-3.645
161404.000			10.935			-3.645
161504.000			10.934			-3.645
161605.000			10.935			-3.645
161703.000			10.935			-3.645
161804.000			10.934			-3.645
161905.000			10.934			-3.645
162004.000			10.934			-3.645
162104.000			10.933			-3.644
162205.000			10.934			-3.645
162304.000			10.932			-3.644
162404.000			10.932			-3.644
162505.000			10.932			-3.644
162603.000			10.932			-3.644
162704.000			10.931			-3.644
162805.000			10.933			-3.644
162904.000			10.933			-3.644
163005.000			10.932			-3.644
163104.000			10.931			-3.644
163204.000			10.932			-3.644
163304.000			10.931			-3.644
163404.000			10.931			-3.644
163503.000			10.931			-3.644
163605.000			10.931			-3.644
163704.000			10.931			-3.644
163804.000			10.930			-3.643
163905.000			10.930			-3.643
164004.000			10.931			-3.643
164104.000			10.931			-3.644
164204.000			10.930			-3.643
164304.000			10.929			-3.643
164404.000			10.929			-3.643
164505.000			10.931			-3.644
164604.000			10.931			-3.644
164704.000			10.931			-3.644
164805.000			10.931			-3.644
164904.000			10.931			-3.644
165004.000			10.930			-3.643
165104.000			10.931			-3.644
165204.000			10.929			-3.643
165304.000			10.929			-3.643
165405.000			10.928			-3.643
165504.000			10.928			-3.643
165604.000			10.929			-3.643
165705.000			10.929			-3.643
165804.000			10.929			-3.643
165904.000			10.928			-3.643
166004.000			10.927			-3.642
166104.000			10.928			-3.643
166205.000			10.927			-3.642
166304.000			10.927			-3.642
166404.000			10.926			-3.642
166505.000			10.925			-3.642
166604.000			10.926			-3.642
166704.000			10.926			-3.642
166805.000			10.926			-3.642
166903.000			10.925			-3.642
167004.000			10.925			-3.642
167105.000			10.925			-3.642
167204.000			10.924			-3.641
167304.000			10.924			-3.641
167405.000			10.924			-3.641
167504.000			10.924			-3.641
167604.000			10.923			-3.641
167705.000			10.923			-3.641
167803.000			10.922			-3.641
167904.000			10.923			-3.641
168005.000			10.923			-3.641
168104.000			10.922			-3.641
168204.000			10.923			-3.641
168305.000			10.923			-3.641
168404.000			10.923			-3.641
168504.000			10.922			-3.641
168605.000			10.921			-3.640
168703.000			10.921			-3.640
168804.000			10.922			-3.641
168905.000			10.921			-3.640
169004.000			10.922			-3.641
169104.000			10.921			-3.640
169205.000			10.920			-3.640
169304.000			10.920			-3.640
169405.000			10.919			-3.640
169504.000			10.919			-3.640
169603.000			10.920			-3.640
169705.000			10.920			-3.640
169804.000			10.919			-3.640
169904.000			10.919			-3.640
170005.000			10.919			-3.640
170104.000			10.919			-3.640
170204.000			10.920			-3.640
170305.000			10.918			-3.639
170404.000			10.918			-3.639
170503.000			10.917			-3.639
170605.000			10.918			-3.639
170704.000			10.918			-3.639
170804.000			10.918			-3.639
170905.000			10.917			-3.639
171004.000			10.918			-3.639
171104.000			10.918			-3.639
171205.000			10.917			-3.639
171304.000			10.917			-3.639
171403.000			10.917			-3.639
171505.000			10.916			-3.639
171604.000			10.916			-3.639
171704.000			10.917			-3.639
171805.000			10.917			-3.639
171904.000			10.916			-3.639
172004.000			10.916			-3.639
172105.000			10.915			-3.638
172204.000			10.916			-3.639
172303.000			10.915			-3.638
172405.000			10.915			-3.638
172504.000			10.915			-3.638
172605.000			10.916			-3.639
172704.000			10.917			-3.639
172804.000			10.915			-3.638
172905.000			10.915			-3.638
173004.000			10.914			-3.638
173104.000			10.915			-3.638
173204.000			10.914			-3.638
173304.000			10.913			-3.638
173404.000			10.914			-3.638
173505.000			10.914			-3.638
173604.000			10.912			-3.637
173704.000			10.911			-3.637
173805.000			10.912			-3.637
173903.000			10.912			-3.637
174004.000			10.912			-3.637
174104.000			10.913			-3.638
174204.000			10.913			-3.638
174304.000			10.912			-3.637
174405.000			10.912			-3.637
174504.000			10.911			-3.637
174604.000			10.911			-3.637
174705.000			10.911			-3.637
174803.000			10.911			-3.637
174904.000			10.911			-3.637
175005.000			10.910			-3.637
175104.000			10.910			-3.637
175204.000			10.911			-3.637
175305.000			10.911			-3.637
175404.000			10.910			-3.637
175504.000			10.911			-3.637
175605.000			10.910			-3.637
175703.000			10.909			-3.636
175805.000			10.909			-3.636
175904.000			10.909			-3.636
176004.000			10.910			-3.637
176105.000			10.909			-3.636
176204.000			10.908			-3.636
176304.000			10.908			-3.636
176405.000			10.908			-3.636
176504.000			10.908			-3.636
176603.000			10.908			-3.636
176705.000			10.908			-3.636
176803.000			10.908			-3.636
176904.000			10.908			-3.636
177005.000			10.908			-3.636
177104.000			10.908			-3.636
177204.000			10.907			-3.636
177305.000			10.906			-3.635
177404.000			10.906			-3.635
177503.000			10.907			-3.636
177605.000			10.906			-3.635
177703.000			10.906			-3.635
177804.000			10.906			-3.635
177905.000			10.906			-3.635
178004.000			10.905			-3.635
178104.000			10.906			-3.635
178205.000			10.906			-3.635
178304.000			10.906			-3.635
178403.000			10.905			-3.635
178505.000			10.906			-3.635
178603.000			10.906			-3.635
178704.000			10.905			-3.635
178805.000			10.904			-3.635
178904.000			10.904			-3.635
179005.000			10.903			-3.634
179104.000			10.904			-3.635
179204.000			10.904			-3.635
179304.000			10.904			-3.635
179404.000			10.904			-3.635
179503.000			10.904			-3.635
179605.000			10.903			-3.634
179704.000			10.903			-3.634
179804.000			10.904			-3.635
179905.000			10.903			-3.634
180004.000			10.904			-3.635
180104.000			10.904			-3.635
180204.000			10.902			-3.634
180304.000			10.902			-3.634
180403.000			10.902			-3.634
180505.000			10.900			-3.633
180604.000			10.901			-3.634
180704.000			10.901			-3.634
180805.000			10.901			-3.634
180904.000			10.901			-3.634
181004.000			10.901			-3.634
181104.000			10.901			-3.634
181204.000			10.901			-3.634
181304.000			10.901			-3.634
181405.000			10.900			-3.633
181504.000			10.901			-3.634
181604.000			10.900			-3.633
181705.000			10.899			-3.633
181804.000			10.900			-3.633
181904.000			10.900			-3.633
182004.000			10.900			-3.633
182104.000			10.899			-3.633
182205.000			10.899			-3.633
182304.000			10.899			-3.633
182404.000			10.898			-3.633
182505.000			10.897			-3.632
182604.000			10.898			-3.633
182704.000			10.898			-3.633
182805.000			10.897			-3.632
182903.000			10.897			-3.632
183004.000			10.897			-3.632
183104.000			10.897			-3.632
183204.000			10.897			-3.632
183304.000			10.898			-3.633
183405.000			10.897			-3.632
183504.000			10.897			-3.632
183604.000			10.897			-3.632
183705.000			10.896			-3.632
183804.000			10.897			-3.632
183904.000			10.897			-3.632
184004.000			10.897			-3.632
184104.000			10.896			-3.632
184204.000			10.896			-3.632
184305.000			10.896			-3.632
184404.000			10.895			-3.632
184504.000			10.895			-3.632
184605.000			10.895			-3.632
184704.000			10.895			-3.632
184804.000			10.895			-3.632
184904.000			10.894			-3.631
185004.000			10.894			-3.631
185104.000			10.894			-3.631
185205.000			10.895			-3.632
185304.000			10.895			-3.632
185405.000			10.894			-3.631
185504.000			10.893			-3.631
185604.000			10.894			-3.631
185705.000			10.894			-3.631
185803.000			10.893			-3.631
185904.000			10.893			-3.631
186004.000			10.893			-3.631
186104.000			10.892			-3.631
186204.000			10.893			-3.631
186305.000			10.893			-3.631
186404.000			10.893			-3.631
186504.000			10.892			-3.631
186605.000			10.892			-3.631
186704.000			10.892			-3.631
186804.000			10.892			-3.631
186904.000			10.891			-3.630
187004.000			10.891			-3.630
187104.000			10.892			-3.631
187205.000			10.893			-3.631
187304.000			10.891			-3.630
187404.000			10.891			-3.630
187505.000			10.890			-3.630
187604.000			10.891			-3.630
187704.000			10.892			-3.631
187804.000			10.891			-3.630
187904.000			10.892			-3.631
188004.000			10.891			-3.630
188105.000			10.891			-3.630
188204.000			10.890			-3.630
188304.000			10.890			-3.630
188405.000			10.890			-3.630
188504.000			10.890			-3.630
188605.000			10.890			-3.630
188703.000			10.890			-3.630
188804.000			10.889			-3.630
188904.000			10.888			-3.629
189004.000			10.889			-3.630
189104.000			10.888			-3.629
189205.000			10.888			-3.629
189304.000			10.889			-3.630
189404.000			10.888			-3.629
189505.000			10.889			-3.630
189604.000			10.888			-3.629
189704.000			10.888			-3.629
189804.000			10.888			-3.629
189904.000			10.888			-3.629
190003.000			10.886			-3.629
190105.000			10.886			-3.629
190204.000			10.886			-3.629
190304.000			10.886			-3.629
190405.000			10.886			-3.629
190504.000			10.886			-3.629
190604.000			10.886			-3.629
190704.000			10.885			-3.628
190804.000			10.885			-3.628
190903.000			10.885			-3.628
191005.000			10.885			-3.628
191104.000			10.886			-3.629
191204.000			10.885			-3.628
191305.000			10.885			-3.628
191404.000			10.886			-3.629
191504.000			10.885			-3.628
191604.000			10.885			-3.628
191704.000			10.885			-3.628
191803.000			10.885			-3.628
191904.000			10.885			-3.628
192004.000			10.884			-3.628
192105.000			10.885			-3.628
192204.000			10.885			-3.628
192304.000			10.884			-3.628
192405.000			10.884			-3.628
192504.000			10.885			-3.628
192604.000			10.884			-3.628
192704.000			10.884			-3.628
192804.000			10.884			-3.628
192904.000			10.885			-3.628
193005.000			10.884			-3.628
193104.000			10.884			-3.628
193204.000			10.882			-3.627
193305.000			10.882			-3.627
193403.000			10.882			-3.627
193504.000			10.883			-3.628
193604.000			10.883			-3.628
193704.000			10.883			-3.628
193804.000			10.883			-3.628
193905.000			10.884			-3.628
194004.000			10.883			-3.628
194104.000			10.882			-3.627
194205.000			10.883			-3.628
194304.000			10.882			-3.627
194404.000			10.881			-3.627
194504.000			10.882			-3.627
194604.000			10.882			-3.627
194704.000			10.881			-3.627
194805.000			10.882			-3.627
194904.000			10.881			-3.627
195005.000			10.881			-3.627
195104.000			10.881			-3.627
195204.000			10.882			-3.627
195305.000			10.882			-3.627
195403.000			10.881			-3.627
195504.000			10.880			-3.627
195605.000			10.880			-3.627
195704.000			10.880			-3.627
195804.000			10.880			-3.627
195905.000			10.881			-3.627
196004.000			10.880			-3.627
196104.000			10.880			-3.627
196205.000			10.878			-3.626
196303.000			10.878			-3.626
196404.000			10.879			-3.626
196504.000			10.878			-3.626
196604.000			10.878			-3.626
196704.000			10.879			-3.626
196805.000			10.878			-3.626
196904.000			10.877			-3.626
197004.000			10.877			-3.626
197105.000			10.878			-3.626
197204.000			10.878			-3.626
197304.000			10.878			-3.626
197404.000			10.878			-3.626
197504.000			10.877			-3.626
197604.000			10.876			-3.625
197705.000			10.877			-3.626
197804.000			10.877			-3.626
197904.000			10.877			-3.626
198005.000			10.877			-3.626
198104.000			10.877			-3.626
198205.000			10.876			-3.625
198303.000			10.875			-3.625
198404.000			10.876			-3.625
198504.000			10.876			-3.625
198604.000			10.876			-3.625
198704.000			10.876			-3.625
198805.000			10.875			-3.625
198904.000			10.875			-3.625
199004.000			10.875			-3.625
199105.000			10.875			-3.625
199204.000			10.875			-3.625
199304.000			10.875			-3.625
199404.000			10.875			-3.625
199504.000			10.874			-3.625
199604.000			10.874			-3.625
199705.000			10.875			-3.625
199804.000			10.873			-3.624
199904.000			10.873			-3.624
200005.000			10.873			-3.624
200104.000			10.873			-3.624
200204.000			10.872			-3.624
200304.000			10.873			-3.624
200404.000			10.874			-3.625
200504.000			10.873			-3.624
200605.000			10.872			-3.624
200704.000			10.873			-3.624
200804.000			10.872			-3.624
200905.000			10.872			-3.624
201004.000			10.871			-3.624
201104.000			10.870			-3.623
201204.000			10.870			-3.623
201304.000			10.871			-3.624
201405.000			10.872			-3.624
201504.000			10.871			-3.624
201604.000			10.870			-3.623
201705.000			10.873			-3.624
201804.000			10.872			-3.624
201903.000			10.871			-3.624
202005.000			10.871			-3.624
202104.000			10.871			-3.624
202204.000			10.870			-3.623
202305.000			10.870			-3.623
202404.000			10.870			-3.623
202504.000			10.870			-3.623
202604.000			10.870			-3.623
202704.000			10.870			-3.623
202803.000			10.870			-3.623
202905.000			10.870			-3.623
203004.000			10.870			-3.623
203104.000			10.870			-3.623
203205.000			10.870			-3.623
203304.000			10.870			-3.623
203404.000			10.870			-3.623
203504.000			10.870			-3.623
203604.000			10.869			-3.623
203703.000			10.869			-3.623
203805.000			10.869			-3.623
203904.000			10.869			-3.623
204004.000			10.869			-3.623
204105.000			10.868			-3.623
204204.000			10.868			-3.623
204304.000			10.868			-3.623
204404.000			10.869			-3.623
204504.000			10.869			-3.623
204603.000			10.868			-3.623
204704.000			10.868			-3.623
204804.000			10.868			-3.623
204905.000			10.868			-3.623
205004.000			10.868			-3.623
205104.000			10.868			-3.623
205205.000			10.868			-3.623
205303.000			10.867			-3.622
205404.000			10.868			-3.623
205504.000			10.868			-3.623
205604.000			10.867			-3.622
205704.000			10.866			-3.622
205805.000			10.867			-3.622
205904.000			10.868			-3.623
206004.000			10.868			-3.623
206105.000			10.867			-3.622
206203.000			10.867			-3.622
206304.000			10.868			-3.623
206404.000			10.867			-3.622
206504.000			10.866			-3.622
206604.000			10.867			-3.622
206705.000			10.866			-3.622
206804.000			10.866			-3.622
206904.000			10.866			-3.622
207005.000			10.867			-3.622
207103.000			10.867			-3.622
207204.000			10.866			-3.622
207304.000			10.866			-3.622
207404.000			10.866			-3.622
207504.000			10.865			-3.622
207605.000			10.865			-3.622
207704.000			10.864			-3.621
207805.000			10.864			-3.621
207904.000			10.866			-3.622
208003.000			10.865			-3.622
208105.000			10.865			-3.622
208204.000			10.864			-3.621
208304.000			10.864			-3.621
208405.000			10.863			-3.621
208504.000			10.863			-3.621
208604.000			10.863			-3.621
208705.000			10.864			-3.621
208804.000			10.864			-3.621
208903.000			10.864			-3.621
209005.000			10.863			-3.621
209104.000			10.863			-3.621
209204.000			10.863			-3.621
209305.000			10.863			-3.621
209404.000			10.863			-3.621
209504.000			10.863			-3.621
209605.000			10.863			-3.621
209704.000			10.862			-3.621
209803.000			10.861			-3.620
209905.000			10.861			-3.620
210004.000			10.862			-3.621
210104.000			10.861			-3.620
210205.000			10.860			-3.620
210304.000			10.861			-3.620
210404.000			10.859			-3.620
210505.000			10.858			-3.619
210604.000			10.859			-3.620
210703.000			10.860			-3.620
210805.000			10.859			-3.620
210904.000			10.858			-3.619
211005.000			10.858			-3.619
211104.000			10.858			-3.619
211204.000			10.858			-3.619
211305.000			10.857			-3.619
211404.000			10.857			-3.619
211504.000			10.857			-3.619
211604.000			10.857			-3.619
211704.000			10.857			-3.619
211804.000			10.856			-3.619
211905.000			10.856			-3.619
212004.000			10.855			-3.618
212104.000			10.855			-3.618
212205.000			10.857			-3.619
212303.000			10.856			-3.619
212404.000			10.856			-3.619
212504.000			10.856			-3.619
212604.000			10.855			-3.618
212704.000			10.855			-3.618
212805.000			10.854			-3.618
212904.000			10.854			-3.618
213004.000			10.854			-3.618
213105.000			10.854			-3.618
213203.000			10.854			-3.618
213304.000			10.855			-3.618
213405.000			10.854			-3.618
213504.000			10.853			-3.618
213604.000			10.853			-3.618
213705.000			10.853			-3.618
213804.000			10.852			-3.617
213904.000			10.852			-3.617
214005.000			10.851			-3.617
214103.000			10.854			-3.618
214205.000			10.853			-3.618
214304.000			10.853			-3.618
214404.000			10.851			-3.617
214505.000			10.851			-3.617
214604.000			10.852			-3.617
214704.000			10.852			-3.617
214804.000			10.852			-3.617
214904.000			10.852			-3.617
215003.000			10.850			-3.617
215105.000			10.849			-3.616
215204.000			10.850			-3.617
215304.000			10.851			-3.617
215405.000			10.851			-3.617
215504.000			10.850			-3.617
215604.000			10.851			-3.617
215704.000			10.850			-3.617
215804.000			10.850			-3.617
215903.000			10.848			-3.616
216005.000			10.850			-3.617
216104.000			10.851			-3.617
216204.000			10.851			-3.617
216305.000			10.850			-3.617
216404.000			10.851			-3.617
216504.000			10.850			-3.617
216604.000			10.851			-3.617
216704.000			10.851			-3.617
216804.000			10.850			-3.617
216905.000			10.851			-3.617
217004.000			10.850			-3.617
217104.000			10.851			-3.617
217205.000			10.851			-3.617
217304.000			10.851			-3.617
217405.000			10.850			-3.617
217503.000			10.851			-3.617
217604.000			10.850			-3.617
217705.000			10.849			-3.616
217804.000			10.849			-3.616
217904.000			10.849			-3.616
218005.000			10.849			-3.616
218104.000			10.848			-3.616
218204.000			10.848			-3.616
218305.000			10.849			-3.616
218403.000			10.850			-3.617
218504.000			10.848			-3.616
218605.000			10.848			-3.616
218704.000			10.848			-3.616
218804.000			10.848			-3.616
218905.000			10.848			-3.616
219004.000			10.849			-3.616
219104.000			10.847			-3.616
219205.000			10.849			-3.616
219303.000			10.848			-3.616
219404.000			10.848			-3.616
219505.000			10.847			-3.616
219604.000			10.846			-3.615
219704.000			10.846			-3.615
219805.000			10.847			-3.616
219904.000			10.846			-3.615
220004.000			10.846			-3.615
220105.000			10.846			-3.615
220203.000			10.846			-3.615
220304.000			10.845			-3.615
220405.000			10.845			-3.615
220504.000			10.845			-3.615
220605.000			10.845			-3.615
220704.000			10.845			-3.615
220804.000			10.844			-3.615
220905.000			10.845			-3.615
221004.000			10.844			-3.615
221103.000			10.843			-3.614
221205.000			10.845			-3.615
221304.000			10.845			-3.615
221404.000			10.844			-3.615
221505.000			10.844			-3.615
221604.000			10.844			-3.615
221704.000			10.843			-3.614
221804.000			10.844			-3.615
221904.000			10.844			-3.615
222003.000			10.845			-3.615
222105.000			10.844			-3.615
222204.000			10.843			-3.614
222304.000			10.843			-3.614
222405.000			10.842			-3.614
222504.000			10.842			-3.614
222604.000			10.842			-3.614
222704.000			10.843			-3.614
222804.000			10.842			-3.614
222904.000			10.842			-3.614
223005.000			10.841			-3.614
223104.000			10.841			-3.614
223204.000			10.841			-3.614
223305.000			10.841			-3.614
223404.000			10.842			-3.614
223504.000			10.842			-3.614
223604.000			10.840			-3.613
223704.000			10.840			-3.613
223805.000			10.840			-3.613
223904.000			10.840			-3.613
224004.000			10.839			-3.613
224105.000			10.839			-3.613
224204.000			10.839			-3.613
224304.000			10.839			-3.613
224405.000			10.840			-3.613
224503.000			10.840			-3.613
224604.000			10.840			-3.613
224705.000			10.839			-3.613
224804.000			10.839			-3.613
224904.000			10.839			-3.613
225005.000			10.839			-3.613
225104.000			10.839			-3.613
225203.000			10.839			-3.613
225305.000			10.839			-3.613
225403.000			10.839			-3.613
225504.000			10.839			-3.613
225605.000			10.839			-3.613
225704.000			10.840			-3.613
225804.000			10.841			-3.614
225905.000			10.840			-3.613
226004.000			10.838			-3.613
226103.000			10.838			-3.613
226205.000			10.840			-3.613
226303.000			10.840			-3.613
226404.000			10.840			-3.613
226505.000			10.839			-3.613
226604.000			10.838			-3.613
226704.000			10.837			-3.612
226805.000			10.838			-3.613
226904.000			10.838			-3.613
227003.000			10.837			-3.612
227104.000			10.837			-3.612
227203.000			10.837			-3.612
227305.000			10.837			-3.612
227404.000			10.837			-3.612
227504.000			10.837			-3.612
227605.000			10.837			-3.612
227704.000			10.837			-3.612
227804.000			10.838			-3.613
227904.000			10.836			-3.612
228004.000			10.838			-3.613
228103.000			10.839			-3.613
228205.000			10.838			-3.613
228304.000			10.837			-3.612
228404.000			10.837			-3.612
228505.000			10.837			-3.612
228604.000			10.838			-3.613
228704.000			10.838			-3.613
228804.000			10.837			-3.612
228904.000			10.836			-3.612
229003.000			10.837			-3.612
229105.000			10.837			-3.612
229204.000			10.836			-3.612
229304.000			10.836			-3.612
229405.000			10.836			-3.612
229504.000			10.835			-3.612
229604.000			10.834			-3.611
229704.000			10.835			-3.612
229804.000			10.835			-3.612
229903.000			10.835			-3.612
230005.000			10.835			-3.612
230104.000			10.835			-3.612
230205.000			10.835			-3.612
230304.000			10.836			-3.612
230404.000			10.835			-3.612
230505.000			10.834			-3.611
230603.000			10.835			-3.612
230704.000			10.835			-3.612
230805.000			10.834			-3.611
230904.000			10.834			-3.611
231004.000			10.834			-3.611
231105.000			10.834			-3.611
231204.000			10.834			-3.611
231304.000			10.834			-3.611
231405.000			10.833			-3.611
231503.000			10.833			-3.611
231604.000			10.832			-3.611
231705.000			10.833			-3.611
231804.000			10.833			-3.611
231904.000			10.832			-3.611
232005.000			10.832			-3.611
232104.000			10.832			-3.611
232203.000			10.832			-3.611
232305.000			10.830			-3.610
232403.000			10.832			-3.611
232504.000			10.832			-3.611
232605.000			10.832			-3.611
232704.000			10.831			-3.610
232804.000			10.831			-3.610
232905.000			10.830			-3.610
233004.000			10.830			-3.610
233103.000			10.831			-3.610
233205.000			10.830			-3.610
233304.000			10.830			-3.610
233405.000			10.829			-3.610
233504.000			10.830			-3.610
233604.000			10.830			-3.610
233705.000			10.831			-3.610
233804.000			10.831			-3.610
233904.000			10.831			-3.610
234004.000			10.830			-3.610
234104.000			10.830			-3.610
234204.000			10.830			-3.610
234305.000			10.830			-3.610
234404.000			10.831			-3.610
234504.000			10.830			-3.610
234605.000			10.830			-3.610
234703.000			10.830			-3.610
234804.000			10.830			-3.610
234904.000			10.831			-3.610
235004.000			10.830			-3.610
235104.000			10.829			-3.610
235205.000			10.830			-3.610
235304.000			10.830			-3.610
235404.000			10.829			-3.610
235505.000			10.829			-3.610
235603.000			10.829			-3.610
235704.000			10.829			-3.610
235804.000			10.828			-3.609
235904.000			10.829			-3.610
236004.000			10.829			-3.610
236105.000			10.828			-3.609
236204.000			10.828			-3.609
236304.000			10.828			-3.609
236405.000			10.828			-3.609
236503.000			10.828			-3.609
236605.000			10.827			-3.609
236703.000			10.826			-3.609
236804.000			10.827			-3.609
236905.000			10.827			-3.609
237004.000			10.827			-3.609
237104.000			10.827			-3.609
237205.000			10.828			-3.609
237304.000			10.827			-3.609
237403.000			10.827			-3.609
237505.000			10.828			-3.609
237603.000			10.828			-3.609
237704.000			10.826			-3.609
237805.000			10.825			-3.608
237904.000			10.827			-3.609
238004.000			10.826			-3.609
238105.000			10.825			-3.608
238204.000			10.826			-3.609
238304.000			10.827			-3.609
238405.000			10.826			-3.609
238503.000			10.826			-3.609
238604.000			10.825			-3.608
238705.000			10.825			-3.608
238804.000			10.824			-3.608
238904.000			10.825			-3.608
239005.000			10.825			-3.608
239104.000			10.824			-3.608
239203.000			10.824			-3.608
239305.000			10.825			-3.608
239403.000			10.823			-3.608
239504.000			10.823			-3.608
239605.000			10.823			-3.608
239704.000			10.822			-3.607
239805.000			10.822			-3.607
239904.000			10.822			-3.607
240004.000			10.822			-3.607
240104.000			10.822			-3.607
240204.000			10.822			-3.607
240303.000			10.822			-3.607
240405.000			10.821			-3.607
240504.000			10.821			-3.607
240604.000			10.822			-3.607
240705.000			10.821			-3.607
240804.000			10.820			-3.607
240904.000			10.819			-3.606
241004.000			10.819			-3.606
241104.000			10.818			-3.606
241204.000			10.818			-3.606
241305.000			10.819			-3.606
241404.000			10.818			-3.606
241504.000			10.818			-3.606
241605.000			10.818			-3.606
241704.000			10.817			-3.606
241804.000			10.817			-3.606
241904.000			10.817			-3.606
242004.000			10.817			-3.606
242104.000			10.817			-3.606
242205.000			10.817			-3.606
242304.000			10.817			-3.606
242404.000			10.817			-3.606
242505.000			10.817			-3.606
242603.000			10.816			-3.605
242704.000			10.817			-3.606
242805.000			10.817			-3.606
242904.000			10.816			-3.605
243005.000			10.816			-3.605
243104.000			10.816			-3.605
243204.000			10.815			-3.605
243305.000			10.815			-3.605
243404.000			10.816			-3.605
243503.000			10.816			-3.605
243605.000			10.815			-3.605
243704.000			10.814			-3.605
243804.000			10.814			-3.605
243905.000			10.815			-3.605
244004.000			10.814			-3.605
244104.000			10.814			-3.605
244205.000			10.815			-3.605
244304.000			10.814			-3.605
244403.000			10.813			-3.604
244505.000			10.814			-3.605
244604.000			10.813			-3.604
244704.000			10.814			-3.605
244805.000			10.813			-3.604
244904.000			10.813			-3.604
245004.000			10.812			-3.604
245104.000			10.812			-3.604
245204.000			10.812			-3.604
245303.000			10.813			-3.604
245405.000			10.812			-3.604
245504.000			10.812			-3.604
245604.000			10.812			-3.604
245705.000			10.813			-3.604
245804.000			10.812			-3.604
245904.000			10.812			-3.604
246004.000			10.812			-3.604
246104.000			10.812			-3.604
246205.000			10.812			-3.604
246304.000			10.811			-3.604
246404.000			10.811			-3.604
246505.000			10.810			-3.603
246604.000			10.811			-3.604
246704.000			10.811			-3.604
246805.000			10.811			-3.604
246903.000			10.811			-3.604
247004.000			10.810			-3.603
247105.000			10.810			-3.603
247204.000			10.810			-3.603
247304.000			10.810			-3.603
247405.000			10.810			-3.603
247504.000			10.809			-3.603
247604.000			10.809			-3.603
247705.000			10.809			-3.603
247803.000			10.810			-3.603
247904.000			10.809			-3.603
248005.000			10.810			-3.603
248104.000			10.809			-3.603
248204.000			10.809			-3.603
248305.000			10.811			-3.604
248404.000			10.811			-3.604
248504.000			10.809			-3.603
248605.000			10.809			-3.603
248703.000			10.810			-3.603
248804.000			10.809			-3.603
248905.000			10.809			-3.603
249004.000			10.809			-3.603
249104.000			10.809			-3.603
249205.000			10.808			-3.603
249304.000			10.809			-3.603
249405.000			10.809			-3.603
249504.000			10.808			-3.603
249603.000			10.808			-3.603
249705.000			10.808			-3.603
249804.000			10.809			-3.603
249904.000			10.808			-3.603
250005.000			10.808			-3.603
250104.000			10.808			-3.603
250204.000			10.808			-3.603
250305.000			10.808			-3.603
250404.000			10.808			-3.603
250503.000			10.807			-3.602
250605.000			10.807			-3.602
250704.000			10.808			-3.603
250804.000			10.807			-3.602
250905.000			10.806			-3.602
251004.000			10.806			-3.602
251104.000			10.806			-3.602
251205.000			10.807			-3.602
251304.000			10.806			-3.602
251403.000			10.806			-3.602
251505.000			10.805			-3.602
251604.000			10.805			-3.602
251704.000			10.806			-3.602
251805.000			10.806			-3.602
251904.000			10.805			-3.602
252004.000			10.805			-3.602
252104.000			10.805			-3.602
252204.000			10.804			-3.601
252303.000			10.805			-3.602
252405.000			10.804			-3.601
252504.000			10.804			-3.601
252605.000			10.803			-3.601
252704.000			10.804			-3.601
252804.000			10.804			-3.601
252905.000			10.803			-3.601
253003.000			10.804			-3.601
253104.000			10.803			-3.601
253205.000			10.803			-3.601
253304.000			10.804			-3.601
253404.000			10.803			-3.601
253505.000			10.803			-3.601
253604.000			10.804			-3.601
253704.000			10.802			-3.601
253805.000			10.802			-3.601
253903.000			10.803			-3.601
254004.000			10.803			-3.601
254105.000			10.802			-3.601
254204.000			10.801			-3.600
254304.000			10.801			-3.600
254405.000			10.802			-3.601
254504.000			10.802			-3.601
254603.000			10.802			-3.601
254705.000			10.802			-3.601
254803.000			10.802			-3.601
254904.000			10.801			-3.600
255005.000			10.801			-3.600
255104.000			10.801			-3.600
255204.000			10.801			-3.600
255305.000			10.801			-3.600
255404.000			10.801			-3.600
255503.000			10.800			-3.600
255605.000			10.801			-3.600
255704.000			10.800			-3.600
255805.000			10.800			-3.600
255904.000			10.799			-3.600
256004.000			10.799			-3.600
256105.000			10.799			-3.600
256204.000			10.799			-3.600
256304.000			10.799			-3.600
256404.000			10.799			-3.600
256504.000			10.798			-3.599
256603.000			10.798			-3.599
256705.000			10.798			-3.599
256804.000			10.799			-3.600
256904.000			10.800			-3.600
257005.000			10.799			-3.600
257104.000			10.798			-3.599
257204.000			10.798			-3.599
257305.000			10.798			-3.599
257404.000			10.799			-3.600
257503.000			10.798			-3.599
257605.000			10.797			-3.599
257704.000			10.797			-3.599
257804.000			10.797			-3.599
257905.000			10.796			-3.599
258004.000			10.797			-3.599
258104.000			10.797			-3.599
258205.000			10.797			-3.599
258304.000			10.797			-3.599
258403.000			10.797			-3.599
258505.000			10.796			-3.599
258603.000			10.796			-3.599
258704.000			10.797			-3.599
258805.000			10.796			-3.599
258904.000			10.796			-3.599
259005.000			10.796			-3.599
259104.000			10.795			-3.598
259204.000			10.796			-3.599
259305.000			10.796			-3.599
259404.000			10.795			-3.598
259503.000			10.795			-3.598
259605.000			10.795			-3.598
259704.000			10.795			-3.598
259804.000			10.795			-3.598
259905.000			10.796			-3.599
260004.000			10.795			-3.598
260104.000			10.795			-3.598
260205.000			10.795			-3.598
260304.000			10.796			-3.599
260403.000			10.795			-3.598
260505.000			10.794			-3.598
260604.000			10.794			-3.598
260704.000			10.793			-3.598
260805.000			10.794			-3.598
260904.000			10.795			-3.598
261004.000			10.793			-3.598
261105.000			10.793			-3.598
261204.000			10.794			-3.598
261303.000			10.794			-3.598
261405.000			10.793			-3.598
261504.000			10.794			-3.598
261604.000			10.793			-3.598
261705.000			10.792			-3.597
261804.000			10.792			-3.597
261904.000			10.792			-3.597
262005.000			10.793			-3.598
262104.000			10.793			-3.598
262203.000			10.793			-3.598
262304.000			10.793			-3.598
262404.000			10.792			-3.597
262505.000			10.792			-3.597
262604.000			10.791			-3.597
262704.000			10.792			-3.597
262805.000			10.792			-3.597
262904.000			10.791			-3.597
263004.000			10.792			-3.597
263104.000			10.793			-3.598
263204.000			10.792			-3.597
263304.000			10.792			-3.597
263405.000			10.792			-3.597
263504.000			10.791			-3.597
263604.000			10.791			-3.597
263705.000			10.790			-3.597
263803.000			10.790			-3.597
263904.000			10.791			-3.597
264004.000			10.791			-3.597
264104.000			10.791			-3.597
264204.000			10.791			-3.597
264305.000			10.790			-3.597
264404.000			10.790			-3.597
264504.000			10.790			-3.597
264605.000			10.790			-3.597
264703.000			10.790			-3.597
264804.000			10.789			-3.596
264904.000			10.789			-3.596
265004.000			10.790			-3.597
265104.000			10.789			-3.596
265205.000			10.789			-3.596
265304.000			10.789			-3.596
265405.000			10.788			-3.596
265504.000			10.789			-3.596
265604.000			10.790			-3.597
265705.000			10.789			-3.596
265803.000			10.789			-3.596
265904.000			10.789			-3.596
266005.000			10.789			-3.596
266104.000			10.789			-3.596
266204.000			10.789			-3.596
266305.000			10.789			-3.596
266404.000			10.789			-3.596
266504.000			10.789			-3.596
266605.000			10.789			-3.596
266703.000			10.789			-3.596
266804.000			10.788			-3.596
266904.000			10.789			-3.596
267004.000			10.788			-3.596
267104.000			10.787			-3.596
267205.000			4.686			-1.562
267380.000			10.787			-3.596
267468.000			10.787			-3.596
267556.000			10.787			-3.596
267644.000			10.786			-3.595
267732.000			10.787			-3.596
267820.000			10.787			-3.596
267908.000			10.787			-3.596
268004.000			10.787			-3.596
268105.000			10.786			-3.595
268204.000			10.786			-3.595
268303.000			10.786			-3.595
268405.000			10.786			-3.595
268504.000			10.787			-3.596
268605.000			10.787			-3.596
268704.000			10.786			-3.595
268804.000			10.785			-3.595
268905.000			10.785			-3.595
269004.000			10.785			-3.595
269104.000			10.785			-3.595
269204.000			10.785			-3.595
269304.000			10.785			-3.595
269403.000			10.784			-3.595
269505.000			10.784			-3.595
269604.000			10.784			-3.595
269704.000			10.785			-3.595
269805.000			10.784			-3.595
269904.000			10.784			-3.595
270004.000			10.784			-3.595
270104.000			10.784			-3.595
270204.000			10.784			-3.595
270303.000			10.783			-3.594
270405.000			10.783			-3.594
270504.000			10.784			-3.595
270604.000			10.783			-3.594
270705.000			10.783			-3.594
270804.000			10.784			-3.595
270904.000			10.783			-3.594
271004.000			10.783			-3.594
271104.000			10.783			-3.594
271203.000			10.784			-3.595
271305.000			10.784			-3.595
271404.000			10.783			-3.594
271504.000			10.783			-3.594
271605.000			10.783			-3.594
271704.000			10.783			-3.594
271805.000			10.783			-3.594
271903.000			10.783			-3.594
272004.000			10.783			-3.594
272104.000			10.782			-3.594
272204.000			10.782			-3.594
272304.000			10.783			-3.594
272405.000			10.782			-3.594
272504.000			10.783			-3.594
272604.000			10.783			-3.594
272705.000			10.783			-3.594
272803.000			10.783			-3.594
272904.000			10.782			-3.594
273005.000			10.782			-3.594
273104.000			10.782			-3.594
273204.000			10.782			-3.594
273305.000			10.782			-3.594
273404.000			10.782			-3.594
273504.000			10.782			-3.594
273605.000			10.781			-3.594
273703.000			10.781			-3.594
273804.000			10.781			-3.594
273905.000			10.781			-3.594
274004.000			10.780			-3.593
274104.000			10.780			-3.593
274205.000			10.780			-3.593
274304.000			10.780			-3.593
274404.000			10.780			-3.593
274505.000			10.780			-3.593
274603.000			10.780			-3.593
274704.000			10.779			-3.593
274805.000			10.780			-3.593
274904.000			10.779			-3.593
275005.000			10.779			-3.593
275104.000			10.779			-3.593
275204.000			10.778			-3.593
275305.000			10.778			-3.593
275404.000			10.778			-3.593
275503.000			10.778			-3.593
275605.000			10.778			-3.593
275704.000			10.778			-3.593
275804.000			10.778			-3.593
275905.000			10.778			-3.593
276004.000			10.779			-3.593
276104.000			10.778			-3.593
276205.000			10.778			-3.593
276304.000			10.778			-3.593
276403.000			10.778			-3.593
276505.000			10.778			-3.593
276604.000			10.778			-3.593
276704.000			10.777			-3.592
276805.000			10.778			-3.593
276904.000			10.778			-3.593
277004.000			10.777			-3.592
277105.000			10.778			-3.593
277204.000			10.777			-3.592
277303.000			10.778			-3.593
277405.000			10.776			-3.592
277503.000			10.777			-3.592
277604.000			10.778			-3.593
277705.000			10.778			-3.593
277804.000			10.778			-3.593
277904.000			10.777			-3.592
278005.000			10.776			-3.592
278104.000			10.776			-3.592
278205.000			10.777			-3.592
278304.000			10.776			-3.592
278403.000			10.775			-3.592
278505.000			10.776			-3.592
278604.000			10.775			-3.592
278704.000			10.775			-3.592
278805.000			10.776			-3.592
278904.000			10.776			-3.592
279004.000			10.774			-3.591
279105.000			10.775			-3.592
279204.000			10.776			-3.592
279303.000			10.775			-3.592
279405.000			10.775			-3.592
279504.000			10.776			-3.592
279604.000			10.775			-3.592
279705.000			10.776			-3.592
279804.000			10.775			-3.592
279904.000			10.775			-3.592
280005.000			10.774			-3.591
280104.000			10.775			-3.592
280203.000			10.774			-3.591
280305.000			10.774			-3.591
280403.000			10.774			-3.591
280504.000			10.774			-3.591
280605.000			10.774			-3.591
280704.000			10.774			-3.591
280804.000			10.773			-3.591
280905.000			10.773			-3.591
281004.000			10.773			-3.591
281103.000			10.772			-3.591
281205.000			10.772			-3.591
281304.000			10.772			-3.591
281405.000			10.772			-3.591
281504.000			10.772			-3.591
281604.000			10.773			-3.591
281705.000			10.772			-3.591
281804.000			10.772			-3.591
281904.000			10.773			-3.591
282004.000			10.772			-3.591
282104.000			10.772			-3.591
282204.000			10.771			-3.590
282305.000			10.772			-3.591
282404.000			10.771			-3.590
282504.000			10.771			-3.590
282605.000			10.771			-3.590
282704.000			10.771			-3.590
282804.000			10.771			-3.590
282904.000			10.771			-3.590
283004.000			10.771			-3.590
283104.000			10.772			-3.591
283205.000			10.772			-3.591
283304.000			10.771			-3.590
283404.000			10.771			-3.590
283505.000			10.771			-3.590
283604.000			10.772			-3.591
283704.000			10.771			-3.590
283804.000			10.770			-3.590
283904.000			10.770			-3.590
284004.000			10.769			-3.590
284105.000			10.771			-3.590
284204.000			10.771			-3.590
284304.000			10.771			-3.590
284405.000			10.770			-3.590
284504.000			10.770			-3.590
284605.000			10.768			-3.589
284703.000			10.771			-3.590
284804.000			10.769			-3.590
284905.000			10.769			-3.590
285004.000			10.770			-3.590
285104.000			10.769			-3.590
285205.000			10.770			-3.590
285304.000			10.770			-3.590
285404.000			10.770			-3.590
285505.000			10.768			-3.589
285603.000			10.768			-3.589
285704.000			10.769			-3.590
285804.000			10.768			-3.589
285904.000			10.768			-3.589
286004.000			10.769			-3.590
286105.000			10.767			-3.589
286204.000			10.768			-3.589
286304.000			10.767			-3.589
286405.000			10.767			-3.589
286503.000			10.768			-3.589
286604.000			10.767			-3.589
286704.000			10.767			-3.589
286804.000			10.767			-3.589
286904.000			10.766			-3.589
287005.000			10.767			-3.589
287104.000			10.766			-3.589
287204.000			10.766			-3.589
287305.000			10.767			-3.589
287404.000			10.767			-3.589
287504.000			10.766			-3.589
287604.000			10.766			-3.589
287704.000			10.766			-3.589
287805.000			10.766			-3.589
287904.000			10.766			-3.589
288004.000			10.765			-3.588
288105.000			10.765			-3.588
288204.000			10.767			-3.589
288304.000			10.767			-3.589
288405.000			10.765			-3.588
288503.000			10.765			-3.588
288604.000			10.765			-3.588
288704.000			10.765			-3.588
288804.000			10.765			-3.588
288904.000			10.766			-3.589
289005.000			10.766			-3.589
289104.000			10.764			-3.588
289204.000			10.765			-3.588
289305.000			10.765			-3.588
289403.000			10.765			-3.588
289504.000			10.764			-3.588
289604.000			10.764			-3.588
289704.000			10.765			-3.588
289804.000			10.764			-3.588
289905.000			10.764			-3.588
290004.000			10.763			-3.588
290104.000			10.763			-3.588
290205.000			10.764			-3.588
290303.000			10.763			-3.588
290404.000			10.764			-3.588
290504.000			10.765			-3.588
290604.000			10.763			-3.588
290704.000			10.763			-3.588
290805.000			10.764			-3.588
290904.000			10.763			-3.588
291005.000			10.763			-3.588
291104.000			10.763			-3.588
291203.000			10.763			-3.588
291305.000			10.762			-3.587
291403.000			10.762			-3.587
291504.000			10.762			-3.587
291605.000			10.762			-3.587
291704.000			10.762			-3.587
291804.000			10.761			-3.587
291905.000			10.761			-3.587
292004.000			10.762			-3.587
292103.000			10.762			-3.587
292205.000			10.762			-3.587
292304.000			10.762			-3.587
292404.000			10.762			-3.587
292505.000			10.763			-3.588
292604.000			10.762			-3.587
292704.000			10.761			-3.587
292805.000			10.763			-3.588
292904.000			10.762			-3.587
293003.000			10.761			-3.587
293105.000			10.761			-3.587
293204.000			10.761			-3.587
293304.000			10.762			-3.587
293405.000			10.762			-3.587
293504.000			10.761			-3.587
293604.000			10.760			-3.587
293705.000			10.760			-3.587
293804.000			10.761			-3.587
293903.000			10.760			-3.587
294005.000			10.761			-3.587
294104.000			10.761			-3.587
294205.000			10.761			-3.587
294304.000			10.761			-3.587
294404.000			10.760			-3.587
294505.000			10.761			-3.587
294604.000			10.761			-3.587
294704.000			10.760			-3.587
294804.000			10.760			-3.587
294904.000			10.760			-3.587
295004.000			10.759			-3.586
295105.000			10.760			-3.587
295204.000			10.760			-3.587
295304.000			10.762			-3.587
295405.000			10.761			-3.587
295504.000			10.760			-3.587
295604.000			10.760			-3.587
295704.000			10.760			-3.587
295804.000			10.759			-3.586
295904.000			10.760			-3.587
296005.000			10.760			-3.587
296104.000			10.760			-3.587
296204.000			10.760			-3.587
296305.000			10.759			-3.586
296404.000			10.760			-3.587
296504.000			10.760			-3.587
296604.000			10.761			-3.587
296704.000			10.760			-3.587
296803.000			10.760			-3.587
296905.000			10.759			-3.586
297004.000			10.759			-3.586
297104.000			10.760			-3.587
297205.000			10.759			-3.586
297304.000			10.759			-3.586
297405.000			10.758			-3.586
297503.000			10.758			-3.586
297604.000			10.758			-3.586
297704.000			10.758			-3.586
297804.000			10.759			-3.586
297904.000			10.757			-3.586
298005.000			10.757			-3.586
298104.000			10.756			-3.585
298204.000			10.755			-3.585
298305.000			10.755			-3.585
298404.000			10.755			-3.585
298504.000			10.756			-3.585
298604.000			10.755			-3.585
298704.000			10.757			-3.586
298804.000			10.756			-3.585
298905.000			10.756			-3.585
299004.000			10.755			-3.585
299104.000			10.755			-3.585
299205.000			10.755			-3.585
299304.000			10.755			-3.585
299404.000			10.754			-3.585
299504.000			10.754			-3.585
299604.000			10.755			-3.585
299704.000			10.755			-3.585
299805.000			10.754			-3.585
299904.000			10.755			-3.585
