# Acquired on 19/12/2023 18:07:24 
# SPIDER: Creep_-1mm_07714532C-2
# CREEP MEASUREMENT

# time [ms]		force [N]		stiffness [N/mm]
1.000			1.198			-1.198
101.000			1.871			-1.871
200.000			2.154			-2.154
300.000			2.200			-2.200
401.000			2.193			-2.193
501.000			2.188			-2.188
601.000			2.181			-2.181
701.000			2.178			-2.178
800.000			2.175			-2.175
900.000			2.173			-2.173
1001.000			2.171			-2.171
1100.000			2.169			-2.169
1200.000			2.168			-2.168
1302.000			2.163			-2.163
1401.000			2.162			-2.162
1500.000			2.161			-2.161
1601.000			2.159			-2.159
1700.000			2.159			-2.159
1800.000			2.158			-2.158
1901.000			2.156			-2.156
2001.000			2.155			-2.155
2101.000			2.153			-2.153
2201.000			2.152			-2.152
2300.000			2.152			-2.152
2400.000			2.151			-2.151
2500.000			2.150			-2.150
2600.000			2.149			-2.149
2701.000			2.147			-2.147
2801.000			2.147			-2.147
2901.000			2.146			-2.146
3001.000			2.144			-2.144
3100.000			2.145			-2.145
3200.000			2.144			-2.144
3301.000			2.144			-2.144
3400.000			2.143			-2.143
3501.000			2.142			-2.142
3602.000			2.140			-2.140
3700.000			2.140			-2.140
3800.000			2.140			-2.140
3901.000			2.141			-2.141
4000.000			2.140			-2.140
4100.000			2.139			-2.139
4201.000			2.139			-2.139
4301.000			2.138			-2.138
4401.000			2.138			-2.138
4501.000			2.138			-2.138
4600.000			2.137			-2.137
4700.000			2.137			-2.137
4801.000			2.136			-2.136
4900.000			2.136			-2.136
5001.000			2.134			-2.134
5102.000			2.133			-2.133
5200.000			2.132			-2.132
5300.000			2.132			-2.132
5401.000			2.132			-2.132
5500.000			2.133			-2.133
5600.000			2.132			-2.132
5702.000			2.131			-2.131
5801.000			2.131			-2.131
5901.000			2.131			-2.131
6000.000			2.130			-2.130
6100.000			2.131			-2.131
6201.000			2.130			-2.130
6300.000			2.129			-2.129
6400.000			2.130			-2.130
6502.000			2.128			-2.128
6601.000			2.129			-2.129
6700.000			2.129			-2.129
6801.000			2.128			-2.128
6900.000			2.128			-2.128
7000.000			2.128			-2.128
7101.000			2.126			-2.126
7201.000			2.126			-2.126
7301.000			2.127			-2.127
7401.000			2.128			-2.128
7500.000			2.127			-2.127
7600.000			2.126			-2.126
7701.000			2.125			-2.125
7800.000			2.125			-2.125
7900.000			2.126			-2.126
8002.000			2.127			-2.127
8101.000			2.125			-2.125
8200.000			2.125			-2.125
8301.000			2.124			-2.124
8400.000			2.124			-2.124
8500.000			2.123			-2.123
8601.000			2.123			-2.123
8701.000			2.123			-2.123
8802.000			2.123			-2.123
8900.000			2.123			-2.123
9000.000			2.123			-2.123
9101.000			2.122			-2.122
9200.000			2.122			-2.122
9300.000			2.122			-2.122
9402.000			2.122			-2.122
9501.000			2.122			-2.122
9600.000			2.121			-2.121
9701.000			2.120			-2.120
9800.000			2.121			-2.121
9900.000			2.120			-2.120
10001.000			2.120			-2.120
10100.000			2.120			-2.120
10201.000			2.121			-2.121
10302.000			2.120			-2.120
10400.000			2.119			-2.119
10500.000			2.120			-2.120
10601.000			2.119			-2.119
10700.000			2.119			-2.119
10800.000			2.120			-2.120
10902.000			2.120			-2.120
11001.000			2.118			-2.118
11101.000			2.118			-2.118
11201.000			2.117			-2.117
11300.000			2.117			-2.117
11400.000			2.118			-2.118
11501.000			2.117			-2.117
11600.000			2.116			-2.116
11701.000			2.117			-2.117
11802.000			2.116			-2.116
11900.000			2.116			-2.116
12000.000			2.117			-2.117
12100.000			2.118			-2.118
12200.000			2.117			-2.117
12301.000			2.116			-2.116
12400.000			2.116			-2.116
12501.000			2.116			-2.116
12602.000			2.116			-2.116
12700.000			2.115			-2.115
12800.000			2.116			-2.116
12901.000			2.115			-2.115
13000.000			2.115			-2.115
13100.000			2.115			-2.115
13202.000			2.115			-2.115
13301.000			2.115			-2.115
13400.000			2.114			-2.114
13501.000			2.115			-2.115
13600.000			2.114			-2.114
13700.000			2.114			-2.114
13801.000			2.115			-2.115
13900.000			2.114			-2.114
14001.000			2.113			-2.113
14102.000			2.113			-2.113
14200.000			2.113			-2.113
14300.000			2.113			-2.113
14401.000			2.113			-2.113
14500.000			2.113			-2.113
14600.000			2.114			-2.114
14702.000			2.113			-2.113
14801.000			2.113			-2.113
14900.000			2.114			-2.114
15001.000			2.113			-2.113
15100.000			2.114			-2.114
15200.000			2.115			-2.115
15300.000			2.113			-2.113
15400.000			2.113			-2.113
15502.000			2.112			-2.112
15601.000			2.112			-2.112
15700.000			2.113			-2.113
15801.000			2.112			-2.112
15900.000			2.113			-2.113
16000.000			2.113			-2.113
16101.000			2.112			-2.112
16201.000			2.112			-2.112
16301.000			2.112			-2.112
16401.000			2.113			-2.113
16500.000			2.112			-2.112
16600.000			2.111			-2.111
16701.000			2.111			-2.111
16800.000			2.112			-2.112
16900.000			2.112			-2.112
17002.000			2.112			-2.112
17101.000			2.111			-2.111
17200.000			2.112			-2.112
17301.000			2.111			-2.111
17400.000			2.111			-2.111
17500.000			2.111			-2.111
17601.000			2.111			-2.111
17701.000			2.111			-2.111
17801.000			2.111			-2.111
17902.000			2.111			-2.111
18000.000			2.109			-2.109
18100.000			2.109			-2.109
18201.000			2.110			-2.110
18300.000			2.110			-2.110
18400.000			2.110			-2.110
18502.000			2.109			-2.109
18601.000			2.109			-2.109
18701.000			2.110			-2.110
18800.000			2.110			-2.110
18900.000			2.110			-2.110
19001.000			2.110			-2.110
19100.000			2.110			-2.110
19200.000			2.109			-2.109
19302.000			2.108			-2.108
19401.000			2.108			-2.108
19500.000			2.108			-2.108
19601.000			2.108			-2.108
19700.000			2.109			-2.109
19800.000			2.109			-2.109
19901.000			2.109			-2.109
20000.000			2.107			-2.107
20101.000			2.107			-2.107
20202.000			2.108			-2.108
20300.000			2.108			-2.108
20400.000			2.108			-2.108
20501.000			2.108			-2.108
20600.000			2.108			-2.108
20700.000			2.107			-2.107
20802.000			2.109			-2.109
20901.000			2.108			-2.108
21000.000			2.108			-2.108
21101.000			2.108			-2.108
21200.000			2.109			-2.109
21300.000			2.108			-2.108
21401.000			2.108			-2.108
21500.000			2.108			-2.108
21602.000			2.108			-2.108
21701.000			2.107			-2.107
21800.000			2.106			-2.106
21901.000			2.107			-2.107
22000.000			2.106			-2.106
22100.000			2.107			-2.107
22201.000			2.107			-2.107
22301.000			2.107			-2.107
22401.000			2.106			-2.106
22501.000			2.106			-2.106
22600.000			2.107			-2.107
22700.000			2.107			-2.107
22801.000			2.106			-2.106
22900.000			2.105			-2.105
23000.000			2.106			-2.106
23102.000			2.106			-2.106
23201.000			2.107			-2.107
23300.000			2.107			-2.107
23401.000			2.105			-2.105
23500.000			2.105			-2.105
23600.000			2.105			-2.105
23701.000			2.106			-2.106
23800.000			2.107			-2.107
23901.000			2.106			-2.106
24002.000			2.106			-2.106
24100.000			2.105			-2.105
24200.000			2.105			-2.105
24301.000			2.105			-2.105
24400.000			2.106			-2.106
24500.000			2.106			-2.106
24602.000			2.105			-2.105
24701.000			2.105			-2.105
24800.000			2.105			-2.105
24900.000			2.104			-2.104
25000.000			2.104			-2.104
25101.000			2.104			-2.104
25200.000			2.104			-2.104
25300.000			2.105			-2.105
25402.000			2.105			-2.105
25501.000			2.104			-2.104
25600.000			2.105			-2.105
25701.000			2.105			-2.105
25800.000			2.105			-2.105
25900.000			2.105			-2.105
26001.000			2.105			-2.105
26100.000			2.104			-2.104
26201.000			2.104			-2.104
26302.000			2.105			-2.105
26400.000			2.104			-2.104
26500.000			2.104			-2.104
26601.000			2.105			-2.105
26700.000			2.105			-2.105
26800.000			2.105			-2.105
26902.000			2.105			-2.105
27001.000			2.105			-2.105
27100.000			2.105			-2.105
27201.000			2.104			-2.104
27300.000			2.104			-2.104
27400.000			2.104			-2.104
27501.000			2.104			-2.104
27600.000			2.104			-2.104
27701.000			2.104			-2.104
27802.000			2.104			-2.104
27900.000			2.105			-2.105
28000.000			2.104			-2.104
28100.000			2.104			-2.104
28200.000			2.104			-2.104
28301.000			2.104			-2.104
28400.000			2.104			-2.104
28501.000			2.103			-2.103
28602.000			2.102			-2.102
28700.000			2.103			-2.103
28800.000			2.104			-2.104
28901.000			2.104			-2.104
29000.000			2.103			-2.103
29100.000			2.103			-2.103
29201.000			2.103			-2.103
29301.000			2.103			-2.103
29401.000			2.103			-2.103
29501.000			2.103			-2.103
29600.000			2.104			-2.104
29700.000			2.103			-2.103
29801.000			2.103			-2.103
29900.000			2.103			-2.103
30001.000			2.103			-2.103
30102.000			2.104			-2.104
30200.000			2.104			-2.104
30300.000			2.103			-2.103
30401.000			2.102			-2.102
30500.000			2.102			-2.102
30600.000			2.103			-2.103
30701.000			2.103			-2.103
30801.000			2.102			-2.102
30901.000			2.102			-2.102
31001.000			2.102			-2.102
31100.000			2.102			-2.102
31200.000			2.102			-2.102
31300.000			2.103			-2.103
31400.000			2.103			-2.103
31502.000			2.103			-2.103
31601.000			2.102			-2.102
31700.000			2.101			-2.101
31801.000			2.101			-2.101
31900.000			2.102			-2.102
32000.000			2.102			-2.102
32101.000			2.102			-2.102
32200.000			2.101			-2.101
32301.000			2.101			-2.101
32401.000			2.101			-2.101
32500.000			2.101			-2.101
32600.000			2.101			-2.101
32701.000			2.101			-2.101
32800.000			2.100			-2.100
32900.000			2.098			-2.098
33002.000			2.098			-2.098
33101.000			2.099			-2.099
33200.000			2.099			-2.099
33301.000			2.100			-2.100
33400.000			2.100			-2.100
33500.000			2.099			-2.099
33601.000			2.099			-2.099
33700.000			2.098			-2.098
33801.000			2.097			-2.097
33902.000			2.097			-2.097
34000.000			2.099			-2.099
34100.000			2.099			-2.099
34201.000			2.099			-2.099
34300.000			2.098			-2.098
34400.000			2.099			-2.099
34500.000			2.099			-2.099
34601.000			2.099			-2.099
34702.000			2.099			-2.099
34800.000			2.100			-2.100
34900.000			2.098			-2.098
35001.000			2.097			-2.097
35100.000			2.098			-2.098
35200.000			2.098			-2.098
35301.000			2.098			-2.098
35401.000			2.097			-2.097
35501.000			2.097			-2.097
35601.000			2.098			-2.098
35700.000			2.097			-2.097
35800.000			2.097			-2.097
35901.000			2.098			-2.098
36000.000			2.097			-2.097
36100.000			2.097			-2.097
36202.000			2.099			-2.099
36301.000			2.098			-2.098
36400.000			2.097			-2.097
36501.000			2.096			-2.096
36600.000			2.098			-2.098
36700.000			2.097			-2.097
36801.000			2.097			-2.097
36900.000			2.097			-2.097
37001.000			2.097			-2.097
37102.000			2.097			-2.097
37200.000			2.097			-2.097
37300.000			2.096			-2.096
37401.000			2.098			-2.098
37500.000			2.097			-2.097
37600.000			2.097			-2.097
37700.000			2.098			-2.098
37801.000			2.098			-2.098
37902.000			2.098			-2.098
38000.000			2.098			-2.098
38100.000			2.097			-2.097
38201.000			2.097			-2.097
38300.000			2.098			-2.098
38400.000			2.097			-2.097
38501.000			2.097			-2.097
38601.000			2.097			-2.097
38701.000			2.097			-2.097
38801.000			2.098			-2.098
38900.000			2.098			-2.098
39000.000			2.097			-2.097
39101.000			2.097			-2.097
39200.000			2.097			-2.097
39300.000			2.096			-2.096
39402.000			2.097			-2.097
39501.000			2.096			-2.096
39600.000			2.096			-2.096
39701.000			2.096			-2.096
39800.000			2.095			-2.095
39900.000			2.094			-2.094
40001.000			2.096			-2.096
40100.000			2.097			-2.097
40201.000			2.096			-2.096
40302.000			2.097			-2.097
40400.000			2.096			-2.096
40500.000			2.096			-2.096
40601.000			2.097			-2.097
40700.000			2.096			-2.096
40800.000			2.096			-2.096
40900.000			2.098			-2.098
41001.000			2.097			-2.097
41102.000			2.098			-2.098
41200.000			2.097			-2.097
41300.000			2.097			-2.097
41401.000			2.097			-2.097
41500.000			2.098			-2.098
41600.000			2.097			-2.097
41701.000			2.096			-2.096
41801.000			2.097			-2.097
41901.000			2.096			-2.096
42001.000			2.095			-2.095
42100.000			2.096			-2.096
42200.000			2.096			-2.096
42301.000			2.096			-2.096
42400.000			2.096			-2.096
42500.000			2.096			-2.096
42602.000			2.096			-2.096
42701.000			2.096			-2.096
42800.000			2.095			-2.095
42901.000			2.095			-2.095
43000.000			2.096			-2.096
43100.000			2.095			-2.095
43201.000			2.095			-2.095
43301.000			2.095			-2.095
43401.000			2.094			-2.094
43501.000			2.094			-2.094
43600.000			2.095			-2.095
43700.000			2.095			-2.095
43801.000			2.095			-2.095
43900.000			2.096			-2.096
44000.000			2.096			-2.096
44102.000			2.095			-2.095
44201.000			2.094			-2.094
44301.000			2.094			-2.094
44400.000			2.094			-2.094
44500.000			2.095			-2.095
44601.000			2.094			-2.094
44700.000			2.094			-2.094
44800.000			2.094			-2.094
44902.000			2.094			-2.094
45001.000			2.094			-2.094
45100.000			2.094			-2.094
45201.000			2.093			-2.093
45300.000			2.094			-2.094
45400.000			2.094			-2.094
45501.000			2.093			-2.093
45600.000			2.093			-2.093
45701.000			2.093			-2.093
45802.000			2.093			-2.093
45900.000			2.092			-2.092
46000.000			2.093			-2.093
46101.000			2.094			-2.094
46200.000			2.093			-2.093
46300.000			2.093			-2.093
46401.000			2.094			-2.094
46501.000			2.094			-2.094
46601.000			2.093			-2.093
46701.000			2.093			-2.093
46800.000			2.093			-2.093
46900.000			2.093			-2.093
47001.000			2.093			-2.093
47100.000			2.093			-2.093
47200.000			2.092			-2.092
47302.000			2.093			-2.093
47401.000			2.093			-2.093
47501.000			2.093			-2.093
47600.000			2.092			-2.092
47700.000			2.093			-2.093
47801.000			2.093			-2.093
47900.000			2.093			-2.093
48000.000			2.092			-2.092
48102.000			2.093			-2.093
48201.000			2.092			-2.092
48300.000			2.093			-2.093
48401.000			2.093			-2.093
48500.000			2.093			-2.093
48600.000			2.093			-2.093
48701.000			2.093			-2.093
48800.000			2.093			-2.093
48901.000			2.094			-2.094
49002.000			2.093			-2.093
49100.000			2.093			-2.093
49200.000			2.094			-2.094
49301.000			2.094			-2.094
49400.000			2.094			-2.094
49500.000			2.093			-2.093
49601.000			2.093			-2.093
49701.000			2.094			-2.094
49801.000			2.093			-2.093
49901.000			2.093			-2.093
50000.000			2.093			-2.093
50100.000			2.094			-2.094
50201.000			2.093			-2.093
50300.000			2.093			-2.093
50400.000			2.093			-2.093
50502.000			2.094			-2.094
50601.000			2.092			-2.092
50701.000			2.093			-2.093
50800.000			2.095			-2.095
50900.000			2.094			-2.094
51001.000			2.093			-2.093
51100.000			2.094			-2.094
51200.000			2.095			-2.095
51302.000			2.094			-2.094
51401.000			2.094			-2.094
51500.000			2.094			-2.094
51601.000			2.095			-2.095
51700.000			2.094			-2.094
51800.000			2.094			-2.094
51901.000			2.095			-2.095
52001.000			2.094			-2.094
52101.000			2.095			-2.095
52201.000			2.095			-2.095
52300.000			2.094			-2.094
52400.000			2.094			-2.094
52501.000			2.095			-2.095
52600.000			2.095			-2.095
52700.000			2.094			-2.094
52802.000			2.095			-2.095
52901.000			2.096			-2.096
53000.000			2.096			-2.096
53101.000			2.095			-2.095
53200.000			2.094			-2.094
53300.000			2.094			-2.094
53401.000			2.094			-2.094
53500.000			2.095			-2.095
53602.000			2.094			-2.094
53701.000			2.094			-2.094
53800.000			2.094			-2.094
53901.000			2.094			-2.094
54000.000			2.095			-2.095
54100.000			2.094			-2.094
54201.000			2.094			-2.094
54300.000			2.094			-2.094
54401.000			2.095			-2.095
54502.000			2.094			-2.094
54600.000			2.094			-2.094
54700.000			2.094			-2.094
54801.000			2.094			-2.094
54900.000			2.094			-2.094
55000.000			2.094			-2.094
55101.000			2.092			-2.092
55201.000			2.092			-2.092
55301.000			2.094			-2.094
55401.000			2.093			-2.093
55500.000			2.092			-2.092
55600.000			2.093			-2.093
55701.000			2.093			-2.093
55800.000			2.093			-2.093
55900.000			2.093			-2.093
56002.000			2.093			-2.093
56101.000			2.093			-2.093
56200.000			2.093			-2.093
56301.000			2.094			-2.094
56400.000			2.094			-2.094
56500.000			2.094			-2.094
56601.000			2.094			-2.094
56700.000			2.093			-2.093
56802.000			2.092			-2.092
56901.000			2.093			-2.093
57000.000			2.094			-2.094
57101.000			2.093			-2.093
57200.000			2.093			-2.093
57300.000			2.093			-2.093
57401.000			2.093			-2.093
57500.000			2.093			-2.093
57601.000			2.092			-2.092
57702.000			2.092			-2.092
57800.000			2.093			-2.093
57900.000			2.094			-2.094
58001.000			2.093			-2.093
58100.000			2.094			-2.094
58200.000			2.093			-2.093
58301.000			2.093			-2.093
58401.000			2.093			-2.093
58501.000			2.093			-2.093
58601.000			2.093			-2.093
58700.000			2.092			-2.092
58800.000			2.093			-2.093
58901.000			2.093			-2.093
59000.000			2.092			-2.092
59100.000			2.092			-2.092
59202.000			2.092			-2.092
59301.000			2.093			-2.093
59400.000			2.094			-2.094
59501.000			2.094			-2.094
59600.000			2.092			-2.092
59700.000			2.091			-2.091
59801.000			2.091			-2.091
59901.000			2.091			-2.091
60002.000			2.091			-2.091
60101.000			2.092			-2.092
60200.000			2.092			-2.092
60301.000			2.092			-2.092
60400.000			2.093			-2.093
60500.000			2.092			-2.092
60601.000			2.092			-2.092
60701.000			2.091			-2.091
60801.000			2.091			-2.091
60901.000			2.092			-2.092
61000.000			2.091			-2.091
61100.000			2.091			-2.091
61201.000			2.092			-2.092
61300.000			2.092			-2.092
61400.000			2.092			-2.092
61502.000			2.091			-2.091
61601.000			2.092			-2.092
61700.000			2.091			-2.091
61801.000			2.091			-2.091
61900.000			2.091			-2.091
62000.000			2.091			-2.091
62101.000			2.091			-2.091
62200.000			2.092			-2.092
62301.000			2.091			-2.091
62402.000			2.091			-2.091
62500.000			2.091			-2.091
62600.000			2.091			-2.091
62701.000			2.091			-2.091
62800.000			2.091			-2.091
62900.000			2.091			-2.091
63002.000			2.091			-2.091
63101.000			2.091			-2.091
63202.000			2.091			-2.091
63300.000			2.091			-2.091
63400.000			2.090			-2.090
63501.000			2.089			-2.089
63600.000			2.090			-2.090
63700.000			2.091			-2.091
63802.000			2.090			-2.090
63901.000			2.090			-2.090
64000.000			2.092			-2.092
64101.000			2.091			-2.091
64200.000			2.090			-2.090
64300.000			2.091			-2.091
64401.000			2.090			-2.090
64500.000			2.090			-2.090
64601.000			2.089			-2.089
64702.000			2.090			-2.090
64800.000			2.090			-2.090
64900.000			2.091			-2.091
65001.000			2.091			-2.091
65100.000			2.091			-2.091
65200.000			2.091			-2.091
65301.000			2.091			-2.091
65401.000			2.091			-2.091
65501.000			2.091			-2.091
65601.000			2.091			-2.091
65700.000			2.090			-2.090
65800.000			2.090			-2.090
65901.000			2.090			-2.090
66000.000			2.090			-2.090
66100.000			2.089			-2.089
66202.000			2.090			-2.090
66301.000			2.091			-2.091
66400.000			2.091			-2.091
66500.000			2.091			-2.091
66600.000			2.089			-2.089
66701.000			2.090			-2.090
66800.000			2.091			-2.091
66900.000			2.091			-2.091
67002.000			2.090			-2.090
67101.000			2.090			-2.090
67200.000			2.090			-2.090
67301.000			2.090			-2.090
67400.000			2.091			-2.091
67500.000			2.091			-2.091
67601.000			2.091			-2.091
67700.000			2.091			-2.091
67801.000			2.090			-2.090
67902.000			2.091			-2.091
68000.000			2.090			-2.090
68100.000			2.089			-2.089
68201.000			2.090			-2.090
68300.000			2.090			-2.090
68400.000			2.089			-2.089
68501.000			2.090			-2.090
68601.000			2.090			-2.090
68701.000			2.090			-2.090
68801.000			2.091			-2.091
68900.000			2.090			-2.090
69000.000			2.090			-2.090
69101.000			2.090			-2.090
69200.000			2.090			-2.090
69300.000			2.090			-2.090
69402.000			2.090			-2.090
69501.000			2.089			-2.089
69600.000			2.091			-2.091
69700.000			2.090			-2.090
69800.000			2.090			-2.090
69901.000			2.090			-2.090
70000.000			2.090			-2.090
70100.000			2.090			-2.090
70202.000			2.089			-2.089
70301.000			2.089			-2.089
70401.000			2.090			-2.090
70501.000			2.089			-2.089
70600.000			2.089			-2.089
70700.000			2.089			-2.089
70801.000			2.089			-2.089
70900.000			2.088			-2.088
71000.000			2.090			-2.090
71102.000			2.089			-2.089
71201.000			2.089			-2.089
71300.000			2.088			-2.088
71401.000			2.088			-2.088
71500.000			2.088			-2.088
71600.000			2.088			-2.088
71701.000			2.089			-2.089
71800.000			2.089			-2.089
71901.000			2.089			-2.089
72002.000			2.089			-2.089
72100.000			2.089			-2.089
72200.000			2.088			-2.088
72301.000			2.088			-2.088
72400.000			2.088			-2.088
72500.000			2.087			-2.087
72601.000			2.088			-2.088
72701.000			2.088			-2.088
72802.000			2.089			-2.089
72900.000			2.088			-2.088
73000.000			2.088			-2.088
73101.000			2.088			-2.088
73200.000			2.088			-2.088
73300.000			2.088			-2.088
73401.000			2.089			-2.089
73501.000			2.089			-2.089
73601.000			2.089			-2.089
73701.000			2.089			-2.089
73800.000			2.088			-2.088
73900.000			2.088			-2.088
74001.000			2.088			-2.088
74100.000			2.088			-2.088
74200.000			2.088			-2.088
74301.000			2.089			-2.089
74401.000			2.088			-2.088
74501.000			2.088			-2.088
74601.000			2.089			-2.089
74700.000			2.087			-2.087
74800.000			2.087			-2.087
74901.000			2.088			-2.088
75000.000			2.088			-2.088
75100.000			2.087			-2.087
75202.000			2.088			-2.088
75301.000			2.087			-2.087
75400.000			2.088			-2.088
75501.000			2.087			-2.087
75600.000			2.087			-2.087
75700.000			2.087			-2.087
75801.000			2.087			-2.087
75900.000			2.087			-2.087
76002.000			2.088			-2.088
76101.000			2.087			-2.087
76200.000			2.087			-2.087
76301.000			2.087			-2.087
76400.000			2.086			-2.086
76500.000			2.087			-2.087
76601.000			2.087			-2.087
76700.000			2.087			-2.087
76801.000			2.088			-2.088
76902.000			2.087			-2.087
77001.000			2.087			-2.087
77100.000			2.087			-2.087
77201.000			2.088			-2.088
77300.000			2.088			-2.088
77400.000			2.087			-2.087
77501.000			2.087			-2.087
77601.000			2.086			-2.086
77701.000			2.087			-2.087
77802.000			2.087			-2.087
77900.000			2.087			-2.087
78000.000			2.087			-2.087
78101.000			2.088			-2.088
78200.000			2.088			-2.088
78300.000			2.088			-2.088
78401.000			2.088			-2.088
78501.000			2.088			-2.088
78601.000			2.088			-2.088
78701.000			2.087			-2.087
78800.000			2.087			-2.087
78900.000			2.086			-2.086
79001.000			2.087			-2.087
79100.000			2.087			-2.087
79200.000			2.087			-2.087
79302.000			2.088			-2.088
79401.000			2.087			-2.087
79501.000			2.087			-2.087
79600.000			2.088			-2.088
79700.000			2.087			-2.087
79801.000			2.089			-2.089
79900.000			2.087			-2.087
80000.000			2.087			-2.087
80102.000			2.088			-2.088
80201.000			2.087			-2.087
80300.000			2.087			-2.087
80401.000			2.087			-2.087
80500.000			2.086			-2.086
80600.000			2.087			-2.087
80701.000			2.087			-2.087
80800.000			2.087			-2.087
80901.000			2.088			-2.088
81002.000			2.087			-2.087
81101.000			2.086			-2.086
81200.000			2.086			-2.086
81301.000			2.086			-2.086
81400.000			2.087			-2.087
81500.000			2.087			-2.087
81601.000			2.087			-2.087
81701.000			2.087			-2.087
81801.000			2.087			-2.087
81902.000			2.087			-2.087
82000.000			2.087			-2.087
82100.000			2.086			-2.086
82201.000			2.087			-2.087
82300.000			2.087			-2.087
82400.000			2.087			-2.087
82502.000			2.087			-2.087
82601.000			2.086			-2.086
82702.000			2.086			-2.086
82800.000			2.086			-2.086
82900.000			2.087			-2.087
83001.000			2.086			-2.086
83100.000			2.086			-2.086
83200.000			2.087			-2.087
83301.000			2.087			-2.087
83401.000			2.086			-2.086
83501.000			2.086			-2.086
83601.000			2.086			-2.086
83700.000			2.087			-2.087
83800.000			2.087			-2.087
83901.000			2.088			-2.088
84000.000			2.088			-2.088
84100.000			2.088			-2.088
84202.000			2.088			-2.088
84301.000			2.088			-2.088
84400.000			2.088			-2.088
84501.000			2.087			-2.087
84600.000			2.087			-2.087
84700.000			2.088			-2.088
84801.000			2.089			-2.089
84900.000			2.087			-2.087
85001.000			2.088			-2.088
85102.000			2.088			-2.088
85200.000			2.088			-2.088
85300.000			2.088			-2.088
85401.000			2.088			-2.088
85500.000			2.087			-2.087
85600.000			2.088			-2.088
85700.000			2.088			-2.088
85801.000			2.088			-2.088
85902.000			2.088			-2.088
86000.000			2.087			-2.087
86100.000			2.087			-2.087
86201.000			2.088			-2.088
86300.000			2.087			-2.087
86400.000			2.087			-2.087
86501.000			2.087			-2.087
86601.000			2.088			-2.088
86701.000			2.086			-2.086
86802.000			2.085			-2.085
86900.000			2.087			-2.087
87000.000			2.088			-2.088
87101.000			2.088			-2.088
87200.000			2.087			-2.087
87300.000			2.087			-2.087
87401.000			2.087			-2.087
87501.000			2.087			-2.087
87601.000			2.088			-2.088
87701.000			2.087			-2.087
87800.000			2.088			-2.088
87900.000			2.088			-2.088
88001.000			2.089			-2.089
88100.000			2.089			-2.089
88200.000			2.088			-2.088
88302.000			2.087			-2.087
88401.000			2.087			-2.087
88500.000			2.087			-2.087
88601.000			2.088			-2.088
88700.000			2.087			-2.087
88800.000			2.087			-2.087
88900.000			2.087			-2.087
89000.000			2.087			-2.087
89102.000			2.088			-2.088
89201.000			2.089			-2.089
89301.000			2.088			-2.088
89401.000			2.087			-2.087
89500.000			2.087			-2.087
89600.000			2.087			-2.087
89701.000			2.086			-2.086
89800.000			2.088			-2.088
89900.000			2.087			-2.087
90002.000			2.087			-2.087
90101.000			2.088			-2.088
90200.000			2.088			-2.088
90301.000			2.088			-2.088
90400.000			2.088			-2.088
90500.000			2.088			-2.088
90601.000			2.088			-2.088
90700.000			2.089			-2.089
90801.000			2.088			-2.088
90902.000			2.087			-2.087
91000.000			2.088			-2.088
91100.000			2.088			-2.088
91201.000			2.087			-2.087
91300.000			2.087			-2.087
91400.000			2.087			-2.087
91501.000			2.086			-2.086
91601.000			2.087			-2.087
91701.000			2.086			-2.086
91801.000			2.086			-2.086
91900.000			2.086			-2.086
92000.000			2.086			-2.086
92100.000			2.086			-2.086
92200.000			2.086			-2.086
92301.000			2.087			-2.087
92401.000			2.087			-2.087
92501.000			2.087			-2.087
92601.000			2.086			-2.086
92700.000			2.087			-2.087
92800.000			2.087			-2.087
92901.000			2.087			-2.087
93000.000			2.087			-2.087
93100.000			2.086			-2.086
93202.000			2.087			-2.087
93301.000			2.087			-2.087
93401.000			2.087			-2.087
93501.000			2.086			-2.086
93600.000			2.086			-2.086
93700.000			2.087			-2.087
93801.000			2.088			-2.088
93900.000			2.087			-2.087
94000.000			2.087			-2.087
94102.000			2.086			-2.086
94201.000			2.087			-2.087
94300.000			2.087			-2.087
94401.000			2.087			-2.087
94500.000			2.086			-2.086
94600.000			2.087			-2.087
94701.000			2.086			-2.086
94800.000			2.087			-2.087
94901.000			2.087			-2.087
95002.000			2.087			-2.087
95100.000			2.086			-2.086
95200.000			2.087			-2.087
95300.000			2.087			-2.087
95400.000			2.087			-2.087
95501.000			2.087			-2.087
95600.000			2.088			-2.088
95701.000			2.087			-2.087
95802.000			2.087			-2.087
95900.000			2.087			-2.087
96000.000			2.086			-2.086
96101.000			2.086			-2.086
96200.000			2.086			-2.086
96300.000			2.087			-2.087
96401.000			2.087			-2.087
96501.000			2.088			-2.088
96601.000			2.087			-2.087
96701.000			2.088			-2.088
96800.000			2.087			-2.087
96900.000			2.086			-2.086
97001.000			2.086			-2.086
97100.000			2.086			-2.086
97200.000			2.087			-2.087
97301.000			2.087			-2.087
97401.000			2.086			-2.086
97501.000			2.086			-2.086
97601.000			2.087			-2.087
97700.000			2.086			-2.086
97800.000			2.086			-2.086
97901.000			2.086			-2.086
98000.000			2.086			-2.086
98100.000			2.087			-2.087
98202.000			2.086			-2.086
98301.000			2.087			-2.087
98400.000			2.087			-2.087
98500.000			2.087			-2.087
98600.000			2.086			-2.086
98701.000			2.086			-2.086
98800.000			2.086			-2.086
98900.000			2.086			-2.086
99002.000			2.086			-2.086
99101.000			2.088			-2.088
99201.000			2.087			-2.087
99301.000			2.088			-2.088
99400.000			2.087			-2.087
99500.000			2.087			-2.087
99601.000			2.087			-2.087
99700.000			2.087			-2.087
99800.000			2.087			-2.087
99902.000			2.087			-2.087
100001.000			2.087			-2.087
100100.000			2.087			-2.087
100201.000			2.087			-2.087
100300.000			2.087			-2.087
100400.000			2.086			-2.086
100501.000			2.086			-2.086
100600.000			2.086			-2.086
100701.000			2.087			-2.087
100802.000			2.087			-2.087
100900.000			2.086			-2.086
101000.000			2.086			-2.086
101101.000			2.086			-2.086
101200.000			2.086			-2.086
101300.000			2.085			-2.085
101401.000			2.085			-2.085
101501.000			2.087			-2.087
101602.000			2.087			-2.087
101700.000			2.086			-2.086
101800.000			2.087			-2.087
101901.000			2.087			-2.087
102000.000			2.087			-2.087
102100.000			2.087			-2.087
102201.000			2.087			-2.087
102301.000			2.086			-2.086
102401.000			2.086			-2.086
102501.000			2.087			-2.087
102600.000			2.087			-2.087
102700.000			2.086			-2.086
102801.000			2.086			-2.086
102900.000			2.086			-2.086
103000.000			2.087			-2.087
103101.000			2.087			-2.087
103201.000			2.086			-2.086
103301.000			2.085			-2.085
103401.000			2.086			-2.086
103500.000			2.086			-2.086
103600.000			2.086			-2.086
103701.000			2.085			-2.085
103800.000			2.085			-2.085
103900.000			2.085			-2.085
104002.000			2.085			-2.085
104101.000			2.085			-2.085
104200.000			2.086			-2.086
104301.000			2.086			-2.086
104400.000			2.085			-2.085
104500.000			2.086			-2.086
104601.000			2.085			-2.085
104700.000			2.086			-2.086
104802.000			2.086			-2.086
104901.000			2.086			-2.086
105000.000			2.086			-2.086
105101.000			2.086			-2.086
105200.000			2.086			-2.086
105300.000			2.086			-2.086
105401.000			2.086			-2.086
105500.000			2.086			-2.086
105601.000			2.086			-2.086
105702.000			2.086			-2.086
105801.000			2.086			-2.086
105900.000			2.086			-2.086
106001.000			2.087			-2.087
106100.000			2.086			-2.086
106200.000			2.086			-2.086
106301.000			2.086			-2.086
106400.000			2.086			-2.086
106501.000			2.087			-2.087
106602.000			2.086			-2.086
106700.000			2.086			-2.086
106800.000			2.085			-2.085
106901.000			2.086			-2.086
107000.000			2.086			-2.086
107100.000			2.086			-2.086
107201.000			2.087			-2.087
107301.000			2.087			-2.087
107401.000			2.085			-2.085
107501.000			2.086			-2.086
107600.000			2.087			-2.087
107700.000			2.086			-2.086
107801.000			2.086			-2.086
107900.000			2.086			-2.086
108000.000			2.086			-2.086
108102.000			2.085			-2.085
108201.000			2.085			-2.085
108301.000			2.086			-2.086
108400.000			2.085			-2.085
108500.000			2.086			-2.086
108601.000			2.085			-2.085
108700.000			2.085			-2.085
108800.000			2.085			-2.085
108901.000			2.085			-2.085
109001.000			2.084			-2.084
109101.000			2.086			-2.086
109201.000			2.085			-2.085
109300.000			2.084			-2.084
109400.000			2.085			-2.085
109501.000			2.086			-2.086
109600.000			2.086			-2.086
109700.000			2.084			-2.084
109802.000			2.084			-2.084
109901.000			2.085			-2.085
110000.000			2.086			-2.086
110101.000			2.085			-2.085
110200.000			2.085			-2.085
110300.000			2.085			-2.085
110401.000			2.085			-2.085
110500.000			2.084			-2.084
110601.000			2.085			-2.085
110702.000			2.086			-2.086
110801.000			2.085			-2.085
110900.000			2.085			-2.085
111001.000			2.084			-2.084
111100.000			2.084			-2.084
111200.000			2.085			-2.085
111300.000			2.084			-2.084
111400.000			2.085			-2.085
111502.000			2.085			-2.085
111601.000			2.085			-2.085
111700.000			2.085			-2.085
111801.000			2.084			-2.084
111900.000			2.084			-2.084
112000.000			2.085			-2.085
112101.000			2.085			-2.085
112200.000			2.085			-2.085
112301.000			2.086			-2.086
112402.000			2.086			-2.086
112500.000			2.085			-2.085
112600.000			2.084			-2.084
112701.000			2.084			-2.084
112800.000			2.085			-2.085
112900.000			2.086			-2.086
113001.000			2.085			-2.085
113101.000			2.084			-2.084
113201.000			2.084			-2.084
113301.000			2.084			-2.084
113400.000			2.085			-2.085
113500.000			2.085			-2.085
113601.000			2.085			-2.085
113700.000			2.084			-2.084
113800.000			2.084			-2.084
113902.000			2.084			-2.084
114001.000			2.085			-2.085
114100.000			2.084			-2.084
114201.000			2.084			-2.084
114300.000			2.084			-2.084
114400.000			2.084			-2.084
114500.000			2.084			-2.084
114600.000			2.085			-2.085
114702.000			2.085			-2.085
114801.000			2.085			-2.085
114900.000			2.084			-2.084
115001.000			2.085			-2.085
115100.000			2.085			-2.085
115200.000			2.085			-2.085
115301.000			2.085			-2.085
115400.000			2.085			-2.085
115500.000			2.086			-2.086
115602.000			2.085			-2.085
115701.000			2.085			-2.085
115800.000			2.085			-2.085
115901.000			2.085			-2.085
116000.000			2.086			-2.086
116100.000			2.086			-2.086
116201.000			2.085			-2.085
116300.000			2.084			-2.084
116401.000			2.086			-2.086
116502.000			2.085			-2.085
116600.000			2.086			-2.086
116700.000			2.086			-2.086
116801.000			2.086			-2.086
116900.000			2.086			-2.086
117000.000			2.087			-2.087
117101.000			2.087			-2.087
117201.000			2.086			-2.086
117301.000			2.086			-2.086
117401.000			2.086			-2.086
117500.000			2.087			-2.087
117600.000			2.086			-2.086
117700.000			2.087			-2.087
117800.000			2.086			-2.086
117901.000			2.086			-2.086
118001.000			2.086			-2.086
118101.000			2.086			-2.086
118202.000			2.085			-2.085
118300.000			2.085			-2.085
118400.000			2.085			-2.085
118501.000			2.085			-2.085
118600.000			2.086			-2.086
118700.000			2.087			-2.087
118801.000			2.087			-2.087
118901.000			2.086			-2.086
119001.000			2.086			-2.086
119101.000			2.086			-2.086
119200.000			2.087			-2.087
119300.000			2.086			-2.086
119401.000			2.087			-2.087
119500.000			2.087			-2.087
119600.000			2.086			-2.086
119701.000			2.086			-2.086
119801.000			2.086			-2.086
119901.000			2.085			-2.085
120001.000			2.085			-2.085
120100.000			2.086			-2.086
120200.000			2.085			-2.085
120301.000			2.086			-2.086
120400.000			2.086			-2.086
120500.000			2.086			-2.086
120602.000			2.086			-2.086
120701.000			2.085			-2.085
120800.000			2.084			-2.084
120900.000			2.085			-2.085
121000.000			2.085			-2.085
121101.000			2.085			-2.085
121200.000			2.084			-2.084
121300.000			2.084			-2.084
121402.000			2.084			-2.084
121501.000			2.084			-2.084
121600.000			2.085			-2.085
121701.000			2.085			-2.085
121800.000			2.085			-2.085
121900.000			2.085			-2.085
122001.000			2.086			-2.086
122100.000			2.086			-2.086
122200.000			2.086			-2.086
122302.000			2.085			-2.085
122401.000			2.086			-2.086
122500.000			2.085			-2.085
122601.000			2.086			-2.086
122700.000			2.085			-2.085
122800.000			2.085			-2.085
122901.000			2.084			-2.084
123000.000			2.085			-2.085
123101.000			2.085			-2.085
123202.000			2.085			-2.085
123300.000			2.084			-2.084
123400.000			2.085			-2.085
123501.000			2.085			-2.085
123600.000			2.085			-2.085
123700.000			2.086			-2.086
123801.000			2.085			-2.085
123901.000			2.084			-2.084
124002.000			2.085			-2.085
124100.000			2.086			-2.086
124200.000			2.085			-2.085
124301.000			2.085			-2.085
124400.000			2.085			-2.085
124500.000			2.086			-2.086
124601.000			2.085			-2.085
124701.000			2.085			-2.085
124801.000			2.085			-2.085
124901.000			2.085			-2.085
125000.000			2.084			-2.084
125100.000			2.084			-2.084
125201.000			2.085			-2.085
125300.000			2.085			-2.085
125400.000			2.085			-2.085
125502.000			2.085			-2.085
125601.000			2.085			-2.085
125701.000			2.085			-2.085
125801.000			2.085			-2.085
125900.000			2.086			-2.086
126000.000			2.086			-2.086
126101.000			2.085			-2.085
126200.000			2.085			-2.085
126300.000			2.085			-2.085
126402.000			2.085			-2.085
126501.000			2.085			-2.085
126600.000			2.085			-2.085
126701.000			2.084			-2.084
126800.000			2.084			-2.084
126900.000			2.083			-2.083
127001.000			2.084			-2.084
127100.000			2.085			-2.085
127202.000			2.084			-2.084
127301.000			2.084			-2.084
127400.000			2.083			-2.083
127501.000			2.085			-2.085
127600.000			2.085			-2.085
127700.000			2.086			-2.086
127801.000			2.085			-2.085
127900.000			2.084			-2.084
128001.000			2.084			-2.084
128102.000			2.084			-2.084
128201.000			2.084			-2.084
128300.000			2.084			-2.084
128401.000			2.084			-2.084
128500.000			2.084			-2.084
128600.000			2.084			-2.084
128701.000			2.084			-2.084
128800.000			2.083			-2.083
128901.000			2.084			-2.084
129002.000			2.084			-2.084
129100.000			2.085			-2.085
129200.000			2.085			-2.085
129301.000			2.084			-2.084
129400.000			2.084			-2.084
129500.000			2.083			-2.083
129601.000			2.083			-2.083
129701.000			2.084			-2.084
129801.000			2.083			-2.083
129901.000			2.084			-2.084
130000.000			2.084			-2.084
130100.000			2.084			-2.084
130201.000			2.083			-2.083
130300.000			2.083			-2.083
130400.000			2.083			-2.083
130502.000			2.083			-2.083
130601.000			2.083			-2.083
130702.000			2.084			-2.084
130800.000			2.083			-2.083
130900.000			2.083			-2.083
131001.000			2.083			-2.083
131100.000			2.082			-2.082
131200.000			2.084			-2.084
131301.000			2.085			-2.085
131401.000			2.082			-2.082
131501.000			2.082			-2.082
131601.000			2.083			-2.083
131700.000			2.083			-2.083
131800.000			2.082			-2.082
131901.000			2.083			-2.083
132000.000			2.083			-2.083
132100.000			2.083			-2.083
132201.000			2.083			-2.083
132301.000			2.082			-2.082
132401.000			2.083			-2.083
132501.000			2.083			-2.083
132600.000			2.083			-2.083
132700.000			2.083			-2.083
132801.000			2.083			-2.083
132900.000			2.083			-2.083
133000.000			2.084			-2.084
133101.000			2.084			-2.084
133201.000			2.084			-2.084
133301.000			2.083			-2.083
133401.000			2.083			-2.083
133500.000			2.083			-2.083
133600.000			2.083			-2.083
133700.000			2.082			-2.082
133800.000			2.081			-2.081
133901.000			2.083			-2.083
134000.000			2.083			-2.083
134101.000			2.083			-2.083
134202.000			2.083			-2.083
134300.000			2.083			-2.083
134400.000			2.083			-2.083
134501.000			2.083			-2.083
134600.000			2.084			-2.084
134700.000			2.083			-2.083
134801.000			2.082			-2.082
134900.000			2.083			-2.083
135001.000			2.084			-2.084
135102.000			2.083			-2.083
135200.000			2.083			-2.083
135300.000			2.083			-2.083
135401.000			2.084			-2.084
135500.000			2.084			-2.084
135600.000			2.082			-2.082
135701.000			2.083			-2.083
135800.000			2.084			-2.084
135901.000			2.083			-2.083
136002.000			2.082			-2.082
136101.000			2.084			-2.084
136200.000			2.083			-2.083
136301.000			2.083			-2.083
136400.000			2.083			-2.083
136500.000			2.083			-2.083
136601.000			2.083			-2.083
136700.000			2.083			-2.083
136800.000			2.082			-2.082
136902.000			2.083			-2.083
137001.000			2.084			-2.084
137101.000			2.083			-2.083
137200.000			2.083			-2.083
137300.000			2.083			-2.083
137401.000			2.083			-2.083
137500.000			2.084			-2.084
137600.000			2.083			-2.083
137701.000			2.083			-2.083
137801.000			2.083			-2.083
137901.000			2.082			-2.082
138001.000			2.083			-2.083
138100.000			2.083			-2.083
138200.000			2.083			-2.083
138301.000			2.083			-2.083
138400.000			2.083			-2.083
138500.000			2.084			-2.084
138601.000			2.084			-2.084
138701.000			2.083			-2.083
138801.000			2.083			-2.083
138901.000			2.084			-2.084
139000.000			2.083			-2.083
139100.000			2.083			-2.083
139201.000			2.084			-2.084
139300.000			2.083			-2.083
139400.000			2.083			-2.083
139501.000			2.084			-2.084
139601.000			2.083			-2.083
139701.000			2.083			-2.083
139801.000			2.084			-2.084
139900.000			2.083			-2.083
140000.000			2.083			-2.083
140100.000			2.084			-2.084
140200.000			2.083			-2.083
140301.000			2.082			-2.082
140400.000			2.083			-2.083
140501.000			2.083			-2.083
140602.000			2.084			-2.084
140701.000			2.085			-2.085
140800.000			2.084			-2.084
140901.000			2.083			-2.083
141000.000			2.083			-2.083
141100.000			2.082			-2.082
141201.000			2.082			-2.082
141300.000			2.083			-2.083
141401.000			2.085			-2.085
141502.000			2.083			-2.083
141600.000			2.083			-2.083
141700.000			2.084			-2.084
141801.000			2.083			-2.083
141900.000			2.083			-2.083
142000.000			2.083			-2.083
142101.000			2.082			-2.082
142200.000			2.082			-2.082
142301.000			2.083			-2.083
142402.000			2.084			-2.084
142500.000			2.084			-2.084
142600.000			2.083			-2.083
142701.000			2.083			-2.083
142800.000			2.082			-2.082
142900.000			2.083			-2.083
143001.000			2.082			-2.082
143100.000			2.082			-2.082
143202.000			2.082			-2.082
143301.000			2.082			-2.082
143400.000			2.081			-2.081
143501.000			2.083			-2.083
143600.000			2.082			-2.082
143700.000			2.082			-2.082
143801.000			2.083			-2.083
143900.000			2.083			-2.083
144000.000			2.083			-2.083
144102.000			2.082			-2.082
144201.000			2.083			-2.083
144300.000			2.082			-2.082
144401.000			2.083			-2.083
144500.000			2.083			-2.083
144600.000			2.083			-2.083
144701.000			2.082			-2.082
144800.000			2.083			-2.083
144900.000			2.083			-2.083
145002.000			2.083			-2.083
145101.000			2.084			-2.084
145200.000			2.084			-2.084
145301.000			2.083			-2.083
145400.000			2.082			-2.082
145500.000			2.081			-2.081
145601.000			2.082			-2.082
145700.000			2.083			-2.083
145800.000			2.082			-2.082
145902.000			2.082			-2.082
146001.000			2.082			-2.082
146100.000			2.082			-2.082
146201.000			2.082			-2.082
146300.000			2.083			-2.083
146400.000			2.082			-2.082
146500.000			2.081			-2.081
146600.000			2.081			-2.081
146701.000			2.081			-2.081
146801.000			2.081			-2.081
146901.000			2.083			-2.083
147001.000			2.082			-2.082
147100.000			2.081			-2.081
147200.000			2.081			-2.081
147301.000			2.081			-2.081
147400.000			2.080			-2.080
147500.000			2.080			-2.080
147601.000			2.080			-2.080
147701.000			2.080			-2.080
147801.000			2.080			-2.080
147901.000			2.081			-2.081
148000.000			2.081			-2.081
148100.000			2.080			-2.080
148201.000			2.081			-2.081
148300.000			2.081			-2.081
148400.000			2.081			-2.081
148501.000			2.081			-2.081
148601.000			2.080			-2.080
148701.000			2.081			-2.081
148801.000			2.081			-2.081
148900.000			2.081			-2.081
149000.000			2.081			-2.081
149101.000			2.081			-2.081
149200.000			2.081			-2.081
149300.000			2.081			-2.081
149401.000			2.081			-2.081
149501.000			2.081			-2.081
149602.000			2.081			-2.081
149700.000			2.081			-2.081
149800.000			2.082			-2.082
149901.000			2.082			-2.082
150000.000			2.082			-2.082
150100.000			2.081			-2.081
150201.000			2.081			-2.081
150300.000			2.082			-2.082
150401.000			2.082			-2.082
150502.000			2.081			-2.081
150600.000			2.081			-2.081
150700.000			2.081			-2.081
150801.000			2.082			-2.082
150900.000			2.081			-2.081
151000.000			2.082			-2.082
151101.000			2.083			-2.083
151200.000			2.082			-2.082
151301.000			2.081			-2.081
151402.000			2.082			-2.082
151500.000			2.082			-2.082
151600.000			2.082			-2.082
151701.000			2.081			-2.081
151800.000			2.081			-2.081
151900.000			2.081			-2.081
152001.000			2.081			-2.081
152100.000			2.081			-2.081
152201.000			2.082			-2.082
152302.000			2.082			-2.082
152400.000			2.081			-2.081
152500.000			2.081			-2.081
152601.000			2.081			-2.081
152700.000			2.081			-2.081
152800.000			2.080			-2.080
152900.000			2.081			-2.081
153000.000			2.082			-2.082
153102.000			2.081			-2.081
153201.000			2.081			-2.081
153300.000			2.082			-2.082
153401.000			2.081			-2.081
153500.000			2.081			-2.081
153600.000			2.082			-2.082
153701.000			2.081			-2.081
153800.000			2.081			-2.081
153900.000			2.080			-2.080
154002.000			2.080			-2.080
154101.000			2.081			-2.081
154200.000			2.080			-2.080
154301.000			2.081			-2.081
154400.000			2.081			-2.081
154500.000			2.081			-2.081
154601.000			2.081			-2.081
154700.000			2.082			-2.082
154800.000			2.082			-2.082
154902.000			2.081			-2.081
155001.000			2.080			-2.080
155100.000			2.080			-2.080
155201.000			2.080			-2.080
155300.000			2.080			-2.080
155400.000			2.080			-2.080
155501.000			2.080			-2.080
155600.000			2.081			-2.081
155700.000			2.080			-2.080
155802.000			2.081			-2.081
155901.000			2.081			-2.081
156002.000			2.080			-2.080
156100.000			2.080			-2.080
156200.000			2.081			-2.081
156301.000			2.081			-2.081
156400.000			2.081			-2.081
156500.000			2.081			-2.081
156601.000			2.081			-2.081
156701.000			2.081			-2.081
156801.000			2.081			-2.081
156902.000			2.081			-2.081
157000.000			2.081			-2.081
157100.000			2.081			-2.081
157201.000			2.081			-2.081
157300.000			2.081			-2.081
157400.000			2.081			-2.081
157501.000			2.082			-2.082
157601.000			2.082			-2.082
157701.000			2.082			-2.082
157802.000			2.082			-2.082
157900.000			2.082			-2.082
158000.000			2.081			-2.081
158101.000			2.082			-2.082
158200.000			2.082			-2.082
158300.000			2.082			-2.082
158401.000			2.082			-2.082
158501.000			2.081			-2.081
158601.000			2.081			-2.081
158702.000			2.083			-2.083
158800.000			2.082			-2.082
158900.000			2.081			-2.081
159001.000			2.081			-2.081
159100.000			2.080			-2.080
159200.000			2.080			-2.080
159300.000			2.080			-2.080
159400.000			2.080			-2.080
159502.000			2.079			-2.079
159601.000			2.079			-2.079
159700.000			2.080			-2.080
159801.000			2.080			-2.080
159900.000			2.080			-2.080
160000.000			2.081			-2.081
160101.000			2.081			-2.081
160200.000			2.081			-2.081
160300.000			2.080			-2.080
160402.000			2.080			-2.080
160501.000			2.080			-2.080
160600.000			2.081			-2.081
160701.000			2.080			-2.080
160800.000			2.080			-2.080
160900.000			2.079			-2.079
161001.000			2.081			-2.081
161100.000			2.081			-2.081
161200.000			2.081			-2.081
161302.000			2.081			-2.081
161401.000			2.081			-2.081
161500.000			2.080			-2.080
161601.000			2.079			-2.079
161700.000			2.080			-2.080
161800.000			2.080			-2.080
161901.000			2.080			-2.080
162000.000			2.080			-2.080
162100.000			2.079			-2.079
162202.000			2.080			-2.080
162301.000			2.080			-2.080
162402.000			2.081			-2.081
162500.000			2.080			-2.080
162600.000			2.080			-2.080
162701.000			2.080			-2.080
162800.000			2.079			-2.079
162900.000			2.079			-2.079
163001.000			2.080			-2.080
163101.000			2.080			-2.080
163201.000			2.080			-2.080
163302.000			2.079			-2.079
163400.000			2.080			-2.080
163500.000			2.080			-2.080
163601.000			2.080			-2.080
163700.000			2.080			-2.080
163800.000			2.079			-2.079
163901.000			2.080			-2.080
164000.000			2.080			-2.080
164101.000			2.080			-2.080
164202.000			2.080			-2.080
164300.000			2.080			-2.080
164400.000			2.081			-2.081
164501.000			2.081			-2.081
164600.000			2.079			-2.079
164700.000			2.079			-2.079
164801.000			2.079			-2.079
164900.000			2.080			-2.080
165001.000			2.079			-2.079
165102.000			2.080			-2.080
165200.000			2.080			-2.080
165300.000			2.080			-2.080
165401.000			2.079			-2.079
165500.000			2.079			-2.079
165600.000			2.080			-2.080
165700.000			2.081			-2.081
165800.000			2.080			-2.080
165902.000			2.080			-2.080
166001.000			2.081			-2.081
166101.000			2.080			-2.080
166201.000			2.079			-2.079
166300.000			2.080			-2.080
166400.000			2.080			-2.080
166501.000			2.081			-2.081
166600.000			2.081			-2.081
166700.000			2.080			-2.080
166801.000			2.080			-2.080
166901.000			2.080			-2.080
167001.000			2.081			-2.081
167101.000			2.081			-2.081
167200.000			2.081			-2.081
167300.000			2.080			-2.080
167401.000			2.079			-2.079
167500.000			2.080			-2.080
167600.000			2.080			-2.080
167701.000			2.080			-2.080
167801.000			2.080			-2.080
167901.000			2.080			-2.080
168002.000			2.081			-2.081
168100.000			2.081			-2.081
168200.000			2.080			-2.080
168301.000			2.080			-2.080
168400.000			2.080			-2.080
168500.000			2.081			-2.081
168601.000			2.081			-2.081
168701.000			2.081			-2.081
168802.000			2.081			-2.081
168901.000			2.080			-2.080
169000.000			2.079			-2.079
169101.000			2.078			-2.078
169200.000			2.079			-2.079
169300.000			2.081			-2.081
169401.000			2.080			-2.080
169500.000			2.081			-2.081
169600.000			2.081			-2.081
169702.000			2.080			-2.080
169801.000			2.080			-2.080
169900.000			2.080			-2.080
170001.000			2.080			-2.080
170100.000			2.081			-2.081
170200.000			2.080			-2.080
170301.000			2.080			-2.080
170400.000			2.081			-2.081
170500.000			2.081			-2.081
170602.000			2.081			-2.081
170701.000			2.080			-2.080
170800.000			2.080			-2.080
170901.000			2.080			-2.080
171000.000			2.080			-2.080
171100.000			2.080			-2.080
171201.000			2.080			-2.080
171300.000			2.080			-2.080
171400.000			2.081			-2.081
171502.000			2.080			-2.080
171601.000			2.079			-2.079
171700.000			2.080			-2.080
171801.000			2.081			-2.081
171900.000			2.081			-2.081
172000.000			2.081			-2.081
172100.000			2.081			-2.081
172200.000			2.081			-2.081
172301.000			2.080			-2.080
172401.000			2.080			-2.080
172501.000			2.080			-2.080
172601.000			2.081			-2.081
172700.000			2.081			-2.081
172800.000			2.081			-2.081
172901.000			2.079			-2.079
173000.000			2.079			-2.079
173100.000			2.080			-2.080
173201.000			2.080			-2.080
173301.000			2.080			-2.080
173401.000			2.080			-2.080
173501.000			2.079			-2.079
173600.000			2.079			-2.079
173700.000			2.081			-2.081
173801.000			2.081			-2.081
173900.000			2.081			-2.081
174000.000			2.080			-2.080
174101.000			2.080			-2.080
174201.000			2.081			-2.081
174301.000			2.081			-2.081
174401.000			2.079			-2.079
174500.000			2.079			-2.079
174600.000			2.080			-2.080
174701.000			2.080			-2.080
174800.000			2.080			-2.080
174900.000			2.080			-2.080
175001.000			2.081			-2.081
175101.000			2.080			-2.080
175202.000			2.080			-2.080
175301.000			2.080			-2.080
175400.000			2.080			-2.080
175501.000			2.081			-2.081
175600.000			2.081			-2.081
175700.000			2.081			-2.081
175801.000			2.082			-2.082
175900.000			2.081			-2.081
176000.000			2.081			-2.081
176102.000			2.081			-2.081
176201.000			2.081			-2.081
176300.000			2.081			-2.081
176401.000			2.080			-2.080
176500.000			2.080			-2.080
176600.000			2.080			-2.080
176701.000			2.080			-2.080
176800.000			2.081			-2.081
176900.000			2.080			-2.080
177002.000			2.080			-2.080
177101.000			2.081			-2.081
177200.000			2.081			-2.081
177301.000			2.081			-2.081
177400.000			2.080			-2.080
177500.000			2.080			-2.080
177601.000			2.080			-2.080
177700.000			2.080			-2.080
177800.000			2.081			-2.081
177902.000			2.080			-2.080
178001.000			2.080			-2.080
178101.000			2.081			-2.081
178201.000			2.080			-2.080
178300.000			2.080			-2.080
178400.000			2.080			-2.080
178500.000			2.081			-2.081
178600.000			2.081			-2.081
178701.000			2.081			-2.081
178800.000			2.081			-2.081
178901.000			2.082			-2.082
179002.000			2.082			-2.082
179100.000			2.080			-2.080
179200.000			2.079			-2.079
179301.000			2.080			-2.080
179400.000			2.080			-2.080
179500.000			2.080			-2.080
179601.000			2.080			-2.080
179700.000			2.081			-2.081
179801.000			2.080			-2.080
179902.000			2.080			-2.080
180001.000			2.080			-2.080
180100.000			2.079			-2.079
180201.000			2.079			-2.079
180300.000			2.081			-2.081
180400.000			2.081			-2.081
180501.000			2.080			-2.080
180600.000			2.079			-2.079
180701.000			2.079			-2.079
180802.000			2.080			-2.080
180901.000			2.080			-2.080
181000.000			2.080			-2.080
181101.000			2.079			-2.079
181200.000			2.079			-2.079
181300.000			2.080			-2.080
181401.000			2.081			-2.081
181500.000			2.080			-2.080
181600.000			2.079			-2.079
181702.000			2.079			-2.079
181801.000			2.079			-2.079
181901.000			2.080			-2.080
182000.000			2.079			-2.079
182100.000			2.080			-2.080
182201.000			2.081			-2.081
182300.000			2.081			-2.081
182400.000			2.081			-2.081
182501.000			2.080			-2.080
182601.000			2.081			-2.081
182701.000			2.081			-2.081
182801.000			2.081			-2.081
182900.000			2.081			-2.081
183000.000			2.081			-2.081
183101.000			2.080			-2.080
183200.000			2.082			-2.082
183300.000			2.081			-2.081
183401.000			2.080			-2.080
183501.000			2.081			-2.081
183601.000			2.081			-2.081
183701.000			2.081			-2.081
183800.000			2.080			-2.080
183900.000			2.082			-2.082
184001.000			2.082			-2.082
184100.000			2.080			-2.080
184200.000			2.080			-2.080
184301.000			2.081			-2.081
184401.000			2.081			-2.081
184501.000			2.081			-2.081
184602.000			2.080			-2.080
184700.000			2.081			-2.081
184800.000			2.080			-2.080
184900.000			2.080			-2.080
185000.000			2.080			-2.080
185101.000			2.081			-2.081
185200.000			2.081			-2.081
185300.000			2.081			-2.081
185402.000			2.082			-2.082
185501.000			2.082			-2.082
185600.000			2.081			-2.081
185701.000			2.080			-2.080
185800.000			2.080			-2.080
185900.000			2.081			-2.081
186001.000			2.081			-2.081
186100.000			2.082			-2.082
186200.000			2.081			-2.081
186302.000			2.082			-2.082
186401.000			2.081			-2.081
186500.000			2.082			-2.082
186601.000			2.082			-2.082
186700.000			2.082			-2.082
186800.000			2.082			-2.082
186901.000			2.081			-2.081
187000.000			2.082			-2.082
187100.000			2.083			-2.083
187202.000			2.083			-2.083
187301.000			2.082			-2.082
187401.000			2.082			-2.082
187501.000			2.081			-2.081
187600.000			2.081			-2.081
187700.000			2.080			-2.080
187801.000			2.081			-2.081
187900.000			2.081			-2.081
188000.000			2.080			-2.080
188100.000			2.080			-2.080
188201.000			2.079			-2.079
188302.000			2.081			-2.081
188401.000			2.081			-2.081
188500.000			2.080			-2.080
188601.000			2.080			-2.080
188700.000			2.080			-2.080
188800.000			2.081			-2.081
188901.000			2.080			-2.080
189000.000			2.081			-2.081
189101.000			2.080			-2.080
189202.000			2.081			-2.081
189301.000			2.079			-2.079
189400.000			2.080			-2.080
189501.000			2.081			-2.081
189600.000			2.081			-2.081
189700.000			2.081			-2.081
189801.000			2.081			-2.081
189900.000			2.080			-2.080
190000.000			2.081			-2.081
190102.000			2.081			-2.081
190201.000			2.080			-2.080
190300.000			2.080			-2.080
190401.000			2.081			-2.081
190500.000			2.081			-2.081
190600.000			2.081			-2.081
190701.000			2.081			-2.081
190800.000			2.081			-2.081
190900.000			2.080			-2.080
191002.000			2.081			-2.081
191101.000			2.081			-2.081
191200.000			2.080			-2.080
191300.000			2.081			-2.081
191400.000			2.081			-2.081
191501.000			2.080			-2.080
191600.000			2.080			-2.080
191700.000			2.081			-2.081
191801.000			2.080			-2.080
191901.000			2.080			-2.080
192001.000			2.080			-2.080
192101.000			2.079			-2.079
192200.000			2.080			-2.080
192300.000			2.080			-2.080
192401.000			2.081			-2.081
192500.000			2.080			-2.080
192600.000			2.080			-2.080
192701.000			2.081			-2.081
192801.000			2.081			-2.081
192901.000			2.081			-2.081
193001.000			2.080			-2.080
193100.000			2.080			-2.080
193200.000			2.080			-2.080
193301.000			2.081			-2.081
193400.000			2.082			-2.082
193500.000			2.080			-2.080
193601.000			2.080			-2.080
193701.000			2.080			-2.080
193801.000			2.080			-2.080
193901.000			2.080			-2.080
194000.000			2.081			-2.081
194100.000			2.081			-2.081
194201.000			2.081			-2.081
194300.000			2.080			-2.080
194400.000			2.080			-2.080
194500.000			2.079			-2.079
194601.000			2.080			-2.080
194702.000			2.080			-2.080
194801.000			2.079			-2.079
194900.000			2.080			-2.080
195001.000			2.080			-2.080
195100.000			2.079			-2.079
195200.000			2.079			-2.079
195301.000			2.079			-2.079
195400.000			2.080			-2.080
195500.000			2.080			-2.080
195602.000			2.079			-2.079
195701.000			2.079			-2.079
195800.000			2.080			-2.080
195901.000			2.080			-2.080
196000.000			2.080			-2.080
196100.000			2.080			-2.080
196201.000			2.080			-2.080
196300.000			2.079			-2.079
196400.000			2.080			-2.080
196502.000			2.079			-2.079
196601.000			2.079			-2.079
196701.000			2.079			-2.079
196801.000			2.080			-2.080
196900.000			2.080			-2.080
197000.000			2.079			-2.079
197101.000			2.080			-2.080
197200.000			2.080			-2.080
197300.000			2.080			-2.080
197401.000			2.080			-2.080
197501.000			2.080			-2.080
197602.000			2.079			-2.079
197701.000			2.080			-2.080
197800.000			2.079			-2.079
197901.000			2.079			-2.079
198000.000			2.080			-2.080
198100.000			2.080			-2.080
198201.000			2.080			-2.080
198300.000			2.081			-2.081
198400.000			2.081			-2.081
198502.000			2.079			-2.079
198601.000			2.080			-2.080
198700.000			2.079			-2.079
198801.000			2.080			-2.080
198900.000			2.080			-2.080
199000.000			2.079			-2.079
199101.000			2.078			-2.078
199200.000			2.079			-2.079
199300.000			2.079			-2.079
199402.000			2.079			-2.079
199501.000			2.078			-2.078
199601.000			2.079			-2.079
199701.000			2.080			-2.080
199800.000			2.079			-2.079
199900.000			2.078			-2.078
200001.000			2.079			-2.079
200100.000			2.079			-2.079
200200.000			2.080			-2.080
200301.000			2.080			-2.080
200401.000			2.080			-2.080
200501.000			2.080			-2.080
200601.000			2.080			-2.080
200700.000			2.079			-2.079
200800.000			2.080			-2.080
200900.000			2.080			-2.080
201000.000			2.080			-2.080
201101.000			2.080			-2.080
201200.000			2.080			-2.080
201301.000			2.080			-2.080
201402.000			2.079			-2.079
201500.000			2.079			-2.079
201600.000			2.079			-2.079
201701.000			2.079			-2.079
201800.000			2.079			-2.079
201900.000			2.079			-2.079
202001.000			2.079			-2.079
202101.000			2.079			-2.079
202201.000			2.079			-2.079
202302.000			2.079			-2.079
202400.000			2.080			-2.080
202500.000			2.080			-2.080
202601.000			2.080			-2.080
202700.000			2.080			-2.080
202800.000			2.080			-2.080
202901.000			2.080			-2.080
203000.000			2.080			-2.080
203101.000			2.079			-2.079
203202.000			2.078			-2.078
203300.000			2.078			-2.078
203400.000			2.078			-2.078
203501.000			2.079			-2.079
203600.000			2.079			-2.079
203700.000			2.078			-2.078
203801.000			2.078			-2.078
203900.000			2.078			-2.078
204002.000			2.079			-2.079
204101.000			2.079			-2.079
204200.000			2.078			-2.078
204301.000			2.078			-2.078
204400.000			2.078			-2.078
204500.000			2.078			-2.078
204601.000			2.079			-2.079
204700.000			2.079			-2.079
204800.000			2.079			-2.079
204902.000			2.079			-2.079
205001.000			2.079			-2.079
205101.000			2.078			-2.078
205201.000			2.078			-2.078
205300.000			2.078			-2.078
205400.000			2.079			-2.079
205501.000			2.079			-2.079
205600.000			2.079			-2.079
205700.000			2.078			-2.078
205802.000			2.079			-2.079
205901.000			2.079			-2.079
206001.000			2.079			-2.079
206101.000			2.080			-2.080
206200.000			2.079			-2.079
206300.000			2.079			-2.079
206401.000			2.079			-2.079
206500.000			2.078			-2.078
206600.000			2.078			-2.078
206701.000			2.080			-2.080
206801.000			2.079			-2.079
206901.000			2.079			-2.079
207001.000			2.080			-2.080
207100.000			2.079			-2.079
207200.000			2.080			-2.080
207300.000			2.080			-2.080
207400.000			2.080			-2.080
207501.000			2.080			-2.080
207600.000			2.080			-2.080
207701.000			2.079			-2.079
207802.000			2.079			-2.079
207901.000			2.079			-2.079
208000.000			2.079			-2.079
208101.000			2.080			-2.080
208200.000			2.080			-2.080
208300.000			2.079			-2.079
208401.000			2.080			-2.080
208500.000			2.079			-2.079
208601.000			2.080			-2.080
208702.000			2.080			-2.080
208801.000			2.079			-2.079
208900.000			2.079			-2.079
209001.000			2.079			-2.079
209100.000			2.081			-2.081
209200.000			2.081			-2.081
209301.000			2.080			-2.080
209400.000			2.079			-2.079
209500.000			2.079			-2.079
209602.000			2.079			-2.079
209701.000			2.079			-2.079
209800.000			2.080			-2.080
209901.000			2.080			-2.080
210000.000			2.079			-2.079
210100.000			2.078			-2.078
210201.000			2.078			-2.078
210300.000			2.079			-2.079
210400.000			2.079			-2.079
210502.000			2.079			-2.079
210601.000			2.078			-2.078
210701.000			2.078			-2.078
210800.000			2.078			-2.078
210900.000			2.078			-2.078
211001.000			2.078			-2.078
211100.000			2.079			-2.079
211200.000			2.079			-2.079
211301.000			2.078			-2.078
211401.000			2.078			-2.078
211501.000			2.079			-2.079
211601.000			2.079			-2.079
211700.000			2.078			-2.078
211800.000			2.078			-2.078
211901.000			2.078			-2.078
212000.000			2.078			-2.078
212100.000			2.078			-2.078
212201.000			2.078			-2.078
212301.000			2.079			-2.079
212401.000			2.080			-2.080
212501.000			2.079			-2.079
212600.000			2.079			-2.079
212700.000			2.080			-2.080
212801.000			2.079			-2.079
212900.000			2.079			-2.079
213000.000			2.079			-2.079
213101.000			2.079			-2.079
213201.000			2.079			-2.079
213301.000			2.079			-2.079
213401.000			2.079			-2.079
213500.000			2.077			-2.077
213600.000			2.078			-2.078
213700.000			2.079			-2.079
213800.000			2.079			-2.079
213901.000			2.079			-2.079
214000.000			2.078			-2.078
214101.000			2.078			-2.078
214202.000			2.079			-2.079
214301.000			2.079			-2.079
214400.000			2.078			-2.078
214501.000			2.078			-2.078
214600.000			2.079			-2.079
214700.000			2.079			-2.079
214801.000			2.079			-2.079
214900.000			2.079			-2.079
215001.000			2.079			-2.079
215102.000			2.079			-2.079
215201.000			2.079			-2.079
215300.000			2.078			-2.078
215401.000			2.078			-2.078
215500.000			2.080			-2.080
215600.000			2.079			-2.079
215701.000			2.079			-2.079
215800.000			2.079			-2.079
215900.000			2.079			-2.079
216002.000			2.078			-2.078
216101.000			2.079			-2.079
216200.000			2.079			-2.079
216301.000			2.078			-2.078
216400.000			2.078			-2.078
216500.000			2.078			-2.078
216601.000			2.078			-2.078
216700.000			2.078			-2.078
216800.000			2.078			-2.078
216902.000			2.078			-2.078
217001.000			2.079			-2.079
217101.000			2.079			-2.079
217200.000			2.078			-2.078
217300.000			2.078			-2.078
217401.000			2.078			-2.078
217500.000			2.079			-2.079
217600.000			2.078			-2.078
217701.000			2.079			-2.079
217801.000			2.078			-2.078
217901.000			2.078			-2.078
218001.000			2.078			-2.078
218100.000			2.078			-2.078
218200.000			2.078			-2.078
218301.000			2.078			-2.078
218400.000			2.078			-2.078
218500.000			2.078			-2.078
218601.000			2.078			-2.078
218701.000			2.079			-2.079
218801.000			2.079			-2.079
218902.000			2.078			-2.078
219000.000			2.078			-2.078
219100.000			2.078			-2.078
219201.000			2.079			-2.079
219300.000			2.079			-2.079
219400.000			2.079			-2.079
219501.000			2.078			-2.078
219600.000			2.078			-2.078
219701.000			2.078			-2.078
219802.000			2.078			-2.078
219900.000			2.078			-2.078
220000.000			2.078			-2.078
220100.000			2.078			-2.078
220200.000			2.078			-2.078
220301.000			2.078			-2.078
220400.000			2.078			-2.078
220500.000			2.078			-2.078
220602.000			2.077			-2.077
220701.000			2.078			-2.078
220800.000			2.078			-2.078
220901.000			2.077			-2.077
221000.000			2.077			-2.077
221100.000			2.077			-2.077
221201.000			2.078			-2.078
221300.000			2.078			-2.078
221400.000			2.077			-2.077
221502.000			2.077			-2.077
221601.000			2.077			-2.077
221700.000			2.077			-2.077
221801.000			2.077			-2.077
221900.000			2.077			-2.077
222000.000			2.078			-2.078
222101.000			2.078			-2.078
222200.000			2.077			-2.077
222300.000			2.077			-2.077
222402.000			2.077			-2.077
222501.000			2.077			-2.077
222600.000			2.078			-2.078
222701.000			2.077			-2.077
222800.000			2.077			-2.077
222900.000			2.077			-2.077
223001.000			2.077			-2.077
223100.000			2.077			-2.077
223200.000			2.077			-2.077
223302.000			2.077			-2.077
223401.000			2.077			-2.077
223501.000			2.077			-2.077
223600.000			2.078			-2.078
223700.000			2.078			-2.078
223801.000			2.077			-2.077
223900.000			2.076			-2.076
224000.000			2.077			-2.077
224101.000			2.077			-2.077
224201.000			2.077			-2.077
224301.000			2.076			-2.076
224401.000			2.077			-2.077
224500.000			2.077			-2.077
224600.000			2.077			-2.077
224701.000			2.078			-2.078
224800.000			2.077			-2.077
224900.000			2.076			-2.076
225001.000			2.077			-2.077
225101.000			2.076			-2.076
225201.000			2.076			-2.076
225301.000			2.076			-2.076
225400.000			2.076			-2.076
225500.000			2.077			-2.077
225601.000			2.077			-2.077
225700.000			2.076			-2.076
225800.000			2.077			-2.077
225901.000			2.077			-2.077
226001.000			2.076			-2.076
226101.000			2.077			-2.077
226202.000			2.077			-2.077
226300.000			2.078			-2.078
226400.000			2.077			-2.077
226500.000			2.076			-2.076
226600.000			2.076			-2.076
226701.000			2.075			-2.075
226800.000			2.077			-2.077
226900.000			2.077			-2.077
227002.000			2.077			-2.077
227101.000			2.077			-2.077
227200.000			2.076			-2.076
227301.000			2.077			-2.077
227400.000			2.077			-2.077
227500.000			2.078			-2.078
227601.000			2.077			-2.077
227700.000			2.077			-2.077
227800.000			2.077			-2.077
227902.000			2.077			-2.077
228001.000			2.076			-2.076
228100.000			2.075			-2.075
228201.000			2.075			-2.075
228300.000			2.076			-2.076
228400.000			2.076			-2.076
228501.000			2.076			-2.076
228600.000			2.077			-2.077
228700.000			2.077			-2.077
228802.000			2.075			-2.075
228901.000			2.075			-2.075
229001.000			2.076			-2.076
229101.000			2.076			-2.076
229200.000			2.076			-2.076
229300.000			2.076			-2.076
229401.000			2.077			-2.077
229500.000			2.076			-2.076
229600.000			2.076			-2.076
229702.000			2.077			-2.077
229801.000			2.077			-2.077
229902.000			2.076			-2.076
230000.000			2.077			-2.077
230100.000			2.077			-2.077
230201.000			2.076			-2.076
230300.000			2.076			-2.076
230400.000			2.076			-2.076
230501.000			2.076			-2.076
230601.000			2.076			-2.076
230701.000			2.076			-2.076
230802.000			2.077			-2.077
230900.000			2.076			-2.076
231000.000			2.077			-2.077
231101.000			2.076			-2.076
231200.000			2.076			-2.076
231300.000			2.076			-2.076
231401.000			2.076			-2.076
231501.000			2.077			-2.077
231601.000			2.077			-2.077
231702.000			2.077			-2.077
231800.000			2.076			-2.076
231900.000			2.076			-2.076
232001.000			2.076			-2.076
232100.000			2.077			-2.077
232200.000			2.077			-2.077
232301.000			2.076			-2.076
232401.000			2.077			-2.077
232501.000			2.077			-2.077
232602.000			2.075			-2.075
232700.000			2.076			-2.076
232800.000			2.077			-2.077
232900.000			2.077			-2.077
233000.000			2.077			-2.077
233101.000			2.077			-2.077
233200.000			2.078			-2.078
233300.000			2.077			-2.077
233402.000			2.076			-2.076
233501.000			2.076			-2.076
233600.000			2.077			-2.077
233701.000			2.078			-2.078
233800.000			2.077			-2.077
233900.000			2.076			-2.076
234001.000			2.076			-2.076
234100.000			2.076			-2.076
234200.000			2.076			-2.076
234302.000			2.077			-2.077
234401.000			2.077			-2.077
234500.000			2.076			-2.076
234601.000			2.077			-2.077
234700.000			2.078			-2.078
234800.000			2.078			-2.078
234901.000			2.078			-2.078
235000.000			2.077			-2.077
235100.000			2.077			-2.077
235202.000			2.078			-2.078
235301.000			2.077			-2.077
235401.000			2.077			-2.077
235501.000			2.077			-2.077
235600.000			2.077			-2.077
235700.000			2.076			-2.076
235801.000			2.077			-2.077
235900.000			2.078			-2.078
236000.000			2.076			-2.076
236102.000			2.077			-2.077
236201.000			2.077			-2.077
236302.000			2.077			-2.077
236400.000			2.077			-2.077
236500.000			2.077			-2.077
236601.000			2.075			-2.075
236700.000			2.077			-2.077
236800.000			2.076			-2.076
236901.000			2.076			-2.076
237000.000			2.077			-2.077
237101.000			2.077			-2.077
237202.000			2.077			-2.077
237300.000			2.077			-2.077
237400.000			2.076			-2.076
237501.000			2.077			-2.077
237600.000			2.077			-2.077
237700.000			2.076			-2.076
237801.000			2.076			-2.076
237900.000			2.076			-2.076
238001.000			2.077			-2.077
238102.000			2.076			-2.076
238201.000			2.077			-2.077
238300.000			2.077			-2.077
238401.000			2.077			-2.077
238500.000			2.077			-2.077
238600.000			2.076			-2.076
238701.000			2.077			-2.077
238800.000			2.076			-2.076
238900.000			2.076			-2.076
239002.000			2.077			-2.077
239101.000			2.077			-2.077
239200.000			2.076			-2.076
239300.000			2.077			-2.077
239400.000			2.076			-2.076
239501.000			2.077			-2.077
239600.000			2.076			-2.076
239700.000			2.077			-2.077
239801.000			2.077			-2.077
239901.000			2.076			-2.076
240001.000			2.076			-2.076
240102.000			2.077			-2.077
240200.000			2.077			-2.077
240300.000			2.077			-2.077
240401.000			2.077			-2.077
240500.000			2.078			-2.078
240600.000			2.077			-2.077
240701.000			2.076			-2.076
240801.000			2.076			-2.076
240901.000			2.075			-2.075
241002.000			2.076			-2.076
241100.000			2.076			-2.076
241200.000			2.076			-2.076
241301.000			2.076			-2.076
241400.000			2.076			-2.076
241500.000			2.076			-2.076
241601.000			2.075			-2.075
241701.000			2.076			-2.076
241801.000			2.076			-2.076
241902.000			2.076			-2.076
242000.000			2.076			-2.076
242100.000			2.076			-2.076
242201.000			2.076			-2.076
242300.000			2.077			-2.077
242400.000			2.076			-2.076
242500.000			2.075			-2.075
242600.000			2.076			-2.076
242702.000			2.076			-2.076
242801.000			2.076			-2.076
242900.000			2.076			-2.076
243001.000			2.076			-2.076
243100.000			2.075			-2.075
243200.000			2.076			-2.076
243301.000			2.076			-2.076
243400.000			2.076			-2.076
243500.000			2.077			-2.077
243602.000			2.076			-2.076
243701.000			2.076			-2.076
243800.000			2.076			-2.076
243901.000			2.076			-2.076
244000.000			2.076			-2.076
244100.000			2.077			-2.077
244201.000			2.076			-2.076
244300.000			2.076			-2.076
244400.000			2.076			-2.076
244502.000			2.075			-2.075
244601.000			2.076			-2.076
244701.000			2.076			-2.076
244801.000			2.076			-2.076
244900.000			2.076			-2.076
245000.000			2.077			-2.077
245101.000			2.076			-2.076
245200.000			2.076			-2.076
245300.000			2.076			-2.076
245402.000			2.076			-2.076
245501.000			2.076			-2.076
245602.000			2.077			-2.077
245700.000			2.076			-2.076
245800.000			2.075			-2.075
245901.000			2.076			-2.076
246000.000			2.076			-2.076
246100.000			2.076			-2.076
246201.000			2.076			-2.076
246300.000			2.076			-2.076
246401.000			2.076			-2.076
246502.000			2.075			-2.075
246600.000			2.076			-2.076
246700.000			2.076			-2.076
246801.000			2.076			-2.076
246900.000			2.076			-2.076
247000.000			2.076			-2.076
247101.000			2.076			-2.076
247200.000			2.077			-2.077
247301.000			2.077			-2.077
247402.000			2.076			-2.076
247501.000			2.075			-2.075
247600.000			2.076			-2.076
247701.000			2.075			-2.075
247800.000			2.076			-2.076
247900.000			2.077			-2.077
248001.000			2.076			-2.076
248100.000			2.076			-2.076
248200.000			2.075			-2.075
248302.000			2.075			-2.075
248401.000			2.075			-2.075
248500.000			2.076			-2.076
248601.000			2.076			-2.076
248700.000			2.075			-2.075
248800.000			2.075			-2.075
248900.000			2.075			-2.075
249000.000			2.075			-2.075
249101.000			2.075			-2.075
249201.000			2.076			-2.076
249301.000			2.076			-2.076
249402.000			2.076			-2.076
249500.000			2.075			-2.075
249600.000			2.076			-2.076
249701.000			2.075			-2.075
249800.000			2.076			-2.076
249900.000			2.077			-2.077
250001.000			2.075			-2.075
250101.000			2.076			-2.076
250201.000			2.077			-2.077
250302.000			2.077			-2.077
250400.000			2.076			-2.076
250500.000			2.076			-2.076
250601.000			2.074			-2.074
250700.000			2.074			-2.074
250800.000			2.074			-2.074
250901.000			2.075			-2.075
251000.000			2.075			-2.075
251101.000			2.075			-2.075
251202.000			2.075			-2.075
251300.000			2.074			-2.074
251400.000			2.074			-2.074
251501.000			2.075			-2.075
251600.000			2.075			-2.075
251700.000			2.074			-2.074
251801.000			2.074			-2.074
251901.000			2.075			-2.075
252002.000			2.074			-2.074
252101.000			2.075			-2.075
252200.000			2.074			-2.074
252301.000			2.074			-2.074
252400.000			2.074			-2.074
252500.000			2.073			-2.073
252601.000			2.073			-2.073
252700.000			2.073			-2.073
252800.000			2.074			-2.074
252902.000			2.074			-2.074
253001.000			2.075			-2.075
253100.000			2.074			-2.074
253201.000			2.073			-2.073
253300.000			2.073			-2.073
253400.000			2.073			-2.073
253501.000			2.074			-2.074
253600.000			2.073			-2.073
253700.000			2.073			-2.073
253802.000			2.074			-2.074
253901.000			2.074			-2.074
254000.000			2.074			-2.074
254101.000			2.074			-2.074
254200.000			2.074			-2.074
254300.000			2.074			-2.074
254401.000			2.074			-2.074
254500.000			2.073			-2.073
254600.000			2.074			-2.074
254702.000			2.074			-2.074
254801.000			2.073			-2.073
254900.000			2.073			-2.073
255001.000			2.074			-2.074
255100.000			2.073			-2.073
255200.000			2.073			-2.073
255300.000			2.073			-2.073
255400.000			2.074			-2.074
255501.000			2.073			-2.073
255601.000			2.074			-2.074
255701.000			2.074			-2.074
255801.000			2.073			-2.073
255900.000			2.074			-2.074
256000.000			2.074			-2.074
256101.000			2.073			-2.073
256200.000			2.074			-2.074
256300.000			2.074			-2.074
256401.000			2.073			-2.073
256501.000			2.073			-2.073
256601.000			2.074			-2.074
256702.000			2.074			-2.074
256800.000			2.074			-2.074
256900.000			2.073			-2.073
257001.000			2.074			-2.074
257100.000			2.073			-2.073
257200.000			2.074			-2.074
257301.000			2.074			-2.074
257401.000			2.074			-2.074
257501.000			2.074			-2.074
257602.000			2.074			-2.074
257700.000			2.073			-2.073
257800.000			2.073			-2.073
257901.000			2.075			-2.075
258000.000			2.075			-2.075
258100.000			2.074			-2.074
258201.000			2.074			-2.074
258300.000			2.074			-2.074
258402.000			2.075			-2.075
258501.000			2.075			-2.075
258600.000			2.074			-2.074
258701.000			2.075			-2.075
258800.000			2.075			-2.075
258900.000			2.075			-2.075
259001.000			2.075			-2.075
259100.000			2.075			-2.075
259200.000			2.075			-2.075
259302.000			2.075			-2.075
259401.000			2.075			-2.075
259501.000			2.076			-2.076
259601.000			2.076			-2.076
259700.000			2.075			-2.075
259800.000			2.075			-2.075
259901.000			2.075			-2.075
260000.000			2.075			-2.075
260100.000			2.075			-2.075
260201.000			2.074			-2.074
260301.000			2.075			-2.075
260401.000			2.076			-2.076
260501.000			2.075			-2.075
260600.000			2.075			-2.075
260700.000			2.074			-2.074
260801.000			2.075			-2.075
260900.000			2.076			-2.076
261000.000			2.076			-2.076
261101.000			2.076			-2.076
261201.000			2.075			-2.075
261301.000			2.075			-2.075
261401.000			2.075			-2.075
261500.000			2.075			-2.075
261600.000			2.075			-2.075
261700.000			2.075			-2.075
261800.000			2.075			-2.075
261901.000			2.074			-2.074
262000.000			2.075			-2.075
262101.000			2.075			-2.075
262202.000			2.076			-2.076
262300.000			2.075			-2.075
262400.000			2.075			-2.075
262501.000			2.075			-2.075
262600.000			2.075			-2.075
262700.000			2.075			-2.075
262801.000			2.075			-2.075
262900.000			2.075			-2.075
263001.000			2.075			-2.075
263102.000			2.074			-2.074
263200.000			2.075			-2.075
263300.000			2.075			-2.075
263401.000			2.074			-2.074
263500.000			2.074			-2.074
263600.000			2.074			-2.074
263701.000			2.075			-2.075
263800.000			2.074			-2.074
263901.000			2.074			-2.074
264002.000			2.074			-2.074
264101.000			2.075			-2.075
264200.000			2.073			-2.073
264301.000			2.074			-2.074
264400.000			2.074			-2.074
264500.000			2.074			-2.074
264601.000			2.074			-2.074
264700.000			2.074			-2.074
264802.000			2.074			-2.074
264901.000			2.073			-2.073
265001.000			2.073			-2.073
265101.000			2.074			-2.074
265200.000			2.074			-2.074
265300.000			2.074			-2.074
265401.000			2.074			-2.074
265500.000			2.075			-2.075
265600.000			2.075			-2.075
265702.000			2.074			-2.074
265801.000			2.074			-2.074
265901.000			2.074			-2.074
266001.000			2.073			-2.073
266100.000			2.074			-2.074
266200.000			2.074			-2.074
266301.000			2.073			-2.073
266400.000			2.073			-2.073
266500.000			2.073			-2.073
266601.000			2.074			-2.074
266701.000			2.074			-2.074
266801.000			2.074			-2.074
266901.000			2.075			-2.075
267000.000			2.075			-2.075
267100.000			2.074			-2.074
267201.000			2.073			-2.073
267300.000			2.074			-2.074
267400.000			2.074			-2.074
267501.000			2.074			-2.074
267601.000			2.074			-2.074
267701.000			2.074			-2.074
267801.000			2.073			-2.073
267900.000			2.073			-2.073
268000.000			2.074			-2.074
268100.000			2.074			-2.074
268200.000			2.073			-2.073
268301.000			2.073			-2.073
268400.000			2.073			-2.073
268501.000			2.073			-2.073
268602.000			2.073			-2.073
268701.000			2.074			-2.074
268800.000			2.074			-2.074
268901.000			2.074			-2.074
269000.000			2.072			-2.072
269100.000			2.073			-2.073
269201.000			2.073			-2.073
269300.000			2.072			-2.072
269401.000			2.073			-2.073
269502.000			2.074			-2.074
269601.000			2.073			-2.073
269700.000			2.073			-2.073
269801.000			2.074			-2.074
269900.000			2.073			-2.073
270000.000			2.074			-2.074
270101.000			2.074			-2.074
270200.000			2.073			-2.073
270300.000			2.073			-2.073
270402.000			2.073			-2.073
270501.000			2.072			-2.072
270600.000			2.072			-2.072
270701.000			2.073			-2.073
270800.000			2.073			-2.073
270900.000			2.073			-2.073
271001.000			2.073			-2.073
271100.000			2.073			-2.073
271200.000			2.073			-2.073
271302.000			2.073			-2.073
271401.000			2.073			-2.073
271501.000			2.072			-2.072
271600.000			2.071			-2.071
271700.000			2.071			-2.071
271801.000			2.073			-2.073
271900.000			2.073			-2.073
272000.000			2.073			-2.073
272101.000			2.073			-2.073
272201.000			2.073			-2.073
272301.000			2.073			-2.073
272401.000			2.073			-2.073
272500.000			2.073			-2.073
272600.000			2.072			-2.072
272701.000			2.072			-2.072
272800.000			2.072			-2.072
272900.000			2.073			-2.073
273001.000			2.073			-2.073
273101.000			2.073			-2.073
273201.000			2.073			-2.073
273301.000			2.073			-2.073
273400.000			2.072			-2.072
273500.000			2.073			-2.073
273601.000			2.073			-2.073
273700.000			2.073			-2.073
273800.000			2.074			-2.074
273901.000			2.074			-2.074
274001.000			2.074			-2.074
274101.000			2.073			-2.073
274201.000			2.072			-2.072
274300.000			2.073			-2.073
274400.000			2.073			-2.073
274500.000			2.074			-2.074
274600.000			2.074			-2.074
274701.000			2.073			-2.073
274800.000			2.073			-2.073
274901.000			2.073			-2.073
275002.000			2.073			-2.073
275101.000			2.074			-2.074
275200.000			2.074			-2.074
275301.000			2.074			-2.074
275400.000			2.073			-2.073
275500.000			2.073			-2.073
275601.000			2.073			-2.073
275700.000			2.073			-2.073
275801.000			2.073			-2.073
275902.000			2.073			-2.073
276001.000			2.073			-2.073
276100.000			2.074			-2.074
276201.000			2.074			-2.074
276300.000			2.073			-2.073
276400.000			2.072			-2.072
276501.000			2.072			-2.072
276600.000			2.073			-2.073
276701.000			2.073			-2.073
276802.000			2.074			-2.074
276901.000			2.074			-2.074
277000.000			2.074			-2.074
277101.000			2.073			-2.073
277200.000			2.073			-2.073
277300.000			2.073			-2.073
277401.000			2.073			-2.073
277500.000			2.074			-2.074
277602.000			2.073			-2.073
277701.000			2.073			-2.073
277801.000			2.074			-2.074
277901.000			2.073			-2.073
278000.000			2.073			-2.073
278100.000			2.073			-2.073
278201.000			2.073			-2.073
278300.000			2.073			-2.073
278400.000			2.073			-2.073
278502.000			2.072			-2.072
278601.000			2.073			-2.073
278701.000			2.074			-2.074
278801.000			2.072			-2.072
278900.000			2.072			-2.072
279000.000			2.072			-2.072
279101.000			2.074			-2.074
279200.000			2.074			-2.074
279300.000			2.073			-2.073
279401.000			2.074			-2.074
279501.000			2.073			-2.073
279601.000			2.073			-2.073
279701.000			2.073			-2.073
279800.000			2.073			-2.073
279900.000			2.073			-2.073
280001.000			2.073			-2.073
280100.000			2.073			-2.073
280200.000			2.074			-2.074
280301.000			2.073			-2.073
280401.000			2.073			-2.073
280501.000			2.074			-2.074
280601.000			2.075			-2.075
280700.000			2.074			-2.074
280800.000			2.075			-2.075
280900.000			2.074			-2.074
281000.000			2.073			-2.073
281101.000			2.072			-2.072
281200.000			2.073			-2.073
281301.000			2.073			-2.073
281402.000			2.073			-2.073
281500.000			2.074			-2.074
281600.000			2.074			-2.074
281701.000			2.073			-2.073
281800.000			2.074			-2.074
281900.000			2.073			-2.073
282001.000			2.072			-2.072
282100.000			2.073			-2.073
282201.000			2.073			-2.073
282302.000			2.074			-2.074
282400.000			2.074			-2.074
282500.000			2.075			-2.075
282601.000			2.074			-2.074
282700.000			2.073			-2.073
282800.000			2.073			-2.073
282901.000			2.073			-2.073
283000.000			2.074			-2.074
283101.000			2.074			-2.074
283202.000			2.073			-2.073
283300.000			2.073			-2.073
283400.000			2.073			-2.073
283501.000			2.073			-2.073
283600.000			2.073			-2.073
283700.000			2.074			-2.074
283801.000			2.074			-2.074
283900.000			2.074			-2.074
284002.000			2.074			-2.074
284101.000			2.073			-2.073
284200.000			2.073			-2.073
284301.000			2.073			-2.073
284400.000			2.073			-2.073
284500.000			2.073			-2.073
284601.000			2.073			-2.073
284700.000			2.072			-2.072
284800.000			2.073			-2.073
284902.000			2.074			-2.074
285001.000			2.073			-2.073
285100.000			2.073			-2.073
285201.000			2.072			-2.072
285300.000			2.072			-2.072
285400.000			2.072			-2.072
285501.000			2.072			-2.072
285600.000			2.072			-2.072
285700.000			2.072			-2.072
285802.000			2.073			-2.073
285901.000			2.072			-2.072
286000.000			2.073			-2.073
286101.000			2.072			-2.072
286200.000			2.072			-2.072
286300.000			2.073			-2.073
286401.000			2.072			-2.072
286500.000			2.072			-2.072
286600.000			2.073			-2.073
286702.000			2.073			-2.073
286801.000			2.073			-2.073
286901.000			2.074			-2.074
287001.000			2.073			-2.073
287100.000			2.073			-2.073
287200.000			2.073			-2.073
287300.000			2.073			-2.073
287400.000			2.073			-2.073
287501.000			2.074			-2.074
287600.000			2.074			-2.074
287701.000			2.074			-2.074
287802.000			2.073			-2.073
287900.000			2.073			-2.073
288000.000			2.073			-2.073
288101.000			2.073			-2.073
288200.000			2.074			-2.074
288300.000			2.074			-2.074
288401.000			2.074			-2.074
288500.000			2.075			-2.075
288601.000			2.073			-2.073
288702.000			2.072			-2.072
288801.000			2.073			-2.073
288900.000			2.074			-2.074
289001.000			2.073			-2.073
289100.000			2.074			-2.074
289200.000			2.073			-2.073
289301.000			2.073			-2.073
289400.000			2.073			-2.073
289500.000			2.073			-2.073
289602.000			2.073			-2.073
289701.000			2.074			-2.074
289800.000			2.073			-2.073
289901.000			2.072			-2.072
290000.000			2.073			-2.073
290100.000			2.073			-2.073
290201.000			2.073			-2.073
290300.000			2.072			-2.072
290400.000			2.073			-2.073
290502.000			2.073			-2.073
290601.000			2.072			-2.072
290701.000			2.072			-2.072
290800.000			2.073			-2.073
290900.000			2.072			-2.072
291001.000			2.072			-2.072
291100.000			2.073			-2.073
291200.000			2.073			-2.073
291301.000			2.074			-2.074
291401.000			2.073			-2.073
291501.000			2.073			-2.073
291601.000			2.073			-2.073
291700.000			2.072			-2.072
291800.000			2.073			-2.073
291901.000			2.073			-2.073
292000.000			2.074			-2.074
292100.000			2.073			-2.073
292201.000			2.072			-2.072
292301.000			2.073			-2.073
292401.000			2.072			-2.072
292501.000			2.072			-2.072
292600.000			2.073			-2.073
292700.000			2.073			-2.073
292801.000			2.074			-2.074
292900.000			2.074			-2.074
293000.000			2.073			-2.073
293101.000			2.073			-2.073
293201.000			2.073			-2.073
293301.000			2.073			-2.073
293401.000			2.073			-2.073
293500.000			2.074			-2.074
293600.000			2.074			-2.074
293700.000			2.075			-2.075
293800.000			2.074			-2.074
293901.000			2.074			-2.074
294000.000			2.074			-2.074
294101.000			2.074			-2.074
294202.000			2.074			-2.074
294301.000			2.075			-2.075
294400.000			2.074			-2.074
294501.000			2.073			-2.073
294600.000			2.073			-2.073
294700.000			2.074			-2.074
294801.000			2.075			-2.075
294900.000			2.076			-2.076
295000.000			2.075			-2.075
295102.000			2.076			-2.076
295201.000			2.075			-2.075
295300.000			2.074			-2.074
295401.000			2.074			-2.074
295500.000			2.075			-2.075
295600.000			2.075			-2.075
295701.000			2.076			-2.076
295800.000			2.075			-2.075
295900.000			2.074			-2.074
296002.000			2.075			-2.075
296101.000			2.075			-2.075
296200.000			2.075			-2.075
296301.000			2.075			-2.075
296400.000			2.074			-2.074
296500.000			2.074			-2.074
296601.000			2.075			-2.075
296700.000			2.074			-2.074
296800.000			2.073			-2.073
296902.000			2.074			-2.074
297001.000			2.074			-2.074
297102.000			2.075			-2.075
297200.000			2.075			-2.075
297300.000			2.074			-2.074
297401.000			2.074			-2.074
297500.000			2.074			-2.074
297600.000			2.074			-2.074
297701.000			2.073			-2.073
297800.000			2.075			-2.075
297901.000			2.075			-2.075
298002.000			2.074			-2.074
298100.000			2.074			-2.074
298200.000			2.075			-2.075
298301.000			2.074			-2.074
298400.000			2.074			-2.074
298500.000			2.074			-2.074
298601.000			2.075			-2.075
298700.000			2.075			-2.075
298801.000			2.074			-2.074
298902.000			2.074			-2.074
299001.000			2.073			-2.073
299100.000			2.075			-2.075
299201.000			2.075			-2.075
299300.000			2.074			-2.074
299400.000			2.074			-2.074
299501.000			2.075			-2.075
299600.000			2.075			-2.075
299700.000			2.074			-2.074
299802.000			2.073			-2.073
299901.000			2.073			-2.073
