# Acquired on 25/01/2024 16:18:30 
# SPIDER: Creep_-6mm_GRPCNT1454A-3
# CREEP MEASUREMENT

# time [ms]		force [N]		stiffness [N/mm]
1.000			26.134			-4.356
104.000			26.577			-4.429
204.000			26.511			-4.418
304.000			26.293			-4.382
404.000			26.118			-4.353
504.000			25.979			-4.330
604.000			25.761			-4.293
704.000			25.673			-4.279
804.000			25.594			-4.266
904.000			25.522			-4.254
1005.000			25.456			-4.243
1104.000			25.395			-4.232
1204.000			25.338			-4.223
1305.000			25.239			-4.206
1403.000			25.195			-4.199
1504.000			25.152			-4.192
1605.000			25.111			-4.185
1704.000			25.073			-4.179
1804.000			25.037			-4.173
1904.000			25.002			-4.167
2004.000			24.970			-4.162
2104.000			24.909			-4.152
2205.000			24.880			-4.147
2304.000			24.851			-4.142
2404.000			24.825			-4.138
2505.000			24.800			-4.133
2603.000			24.775			-4.129
2704.000			24.752			-4.125
2805.000			24.706			-4.118
2904.000			24.684			-4.114
3004.000			24.663			-4.110
3104.000			24.643			-4.107
3204.000			24.623			-4.104
3304.000			24.604			-4.101
3405.000			24.584			-4.097
3504.000			24.551			-4.092
3604.000			24.533			-4.089
3705.000			24.516			-4.086
3803.000			24.500			-4.083
3905.000			24.484			-4.081
4004.000			24.467			-4.078
4104.000			24.452			-4.075
4205.000			24.438			-4.073
4304.000			24.408			-4.068
4404.000			24.394			-4.066
4504.000			24.379			-4.063
4604.000			24.367			-4.061
4704.000			24.353			-4.059
4805.000			24.340			-4.057
4904.000			24.327			-4.055
5003.000			24.302			-4.050
5105.000			24.290			-4.048
5204.000			24.278			-4.046
5304.000			24.267			-4.044
5405.000			24.256			-4.043
5504.000			24.244			-4.041
5604.000			24.233			-4.039
5704.000			24.211			-4.035
5804.000			24.201			-4.033
5904.000			24.191			-4.032
6005.000			24.180			-4.030
6104.000			24.170			-4.028
6203.000			24.161			-4.027
6305.000			24.150			-4.025
6404.000			24.130			-4.022
6504.000			24.122			-4.020
6605.000			24.113			-4.019
6704.000			24.104			-4.017
6804.000			24.095			-4.016
6903.000			24.087			-4.014
7004.000			24.078			-4.013
7105.000			24.070			-4.012
7204.000			24.053			-4.009
7304.000			24.044			-4.007
7404.000			24.035			-4.006
7504.000			24.027			-4.005
7604.000			24.019			-4.003
7705.000			24.012			-4.002
7804.000			24.004			-4.001
7904.000			23.989			-3.998
8005.000			23.982			-3.997
8103.000			23.974			-3.996
8204.000			23.966			-3.994
8305.000			23.959			-3.993
8404.000			23.953			-3.992
8504.000			23.944			-3.991
8605.000			23.930			-3.988
8704.000			23.923			-3.987
8803.000			23.917			-3.986
8905.000			23.911			-3.985
9004.000			23.903			-3.984
9104.000			23.897			-3.983
9205.000			23.891			-3.982
9304.000			23.877			-3.980
9404.000			23.871			-3.978
9504.000			23.864			-3.977
9604.000			23.859			-3.977
9704.000			23.852			-3.975
9805.000			23.846			-3.974
9904.000			23.840			-3.973
10004.000			23.833			-3.972
10105.000			23.822			-3.970
10204.000			23.816			-3.969
10305.000			23.810			-3.968
10404.000			23.804			-3.967
10504.000			23.799			-3.966
10605.000			23.793			-3.966
10703.000			23.787			-3.965
10804.000			23.776			-3.963
10905.000			23.772			-3.962
11004.000			23.765			-3.961
11104.000			23.760			-3.960
11205.000			23.755			-3.959
11304.000			23.749			-3.958
11403.000			23.745			-3.957
11505.000			23.734			-3.956
11604.000			23.729			-3.955
11704.000			23.724			-3.954
11805.000			23.718			-3.953
11904.000			23.713			-3.952
12004.000			23.708			-3.951
12104.000			23.704			-3.951
12204.000			23.695			-3.949
12304.000			23.690			-3.948
12405.000			23.685			-3.947
12504.000			23.681			-3.947
12604.000			23.676			-3.946
12705.000			23.671			-3.945
12803.000			23.667			-3.944
12904.000			23.662			-3.944
13005.000			23.652			-3.942
13104.000			23.648			-3.941
13204.000			23.643			-3.940
13304.000			23.638			-3.940
13404.000			23.634			-3.939
13504.000			23.630			-3.938
13604.000			23.625			-3.938
13704.000			23.617			-3.936
13805.000			23.613			-3.935
13904.000			23.607			-3.935
14004.000			23.603			-3.934
14105.000			23.600			-3.933
14204.000			23.595			-3.933
14304.000			23.591			-3.932
14405.000			23.583			-3.931
14504.000			23.578			-3.930
14604.000			23.575			-3.929
14704.000			23.571			-3.929
14804.000			23.567			-3.928
14903.000			23.564			-3.927
15005.000			23.561			-3.927
15104.000			23.552			-3.925
15204.000			23.549			-3.925
15305.000			23.545			-3.924
15403.000			23.542			-3.924
15504.000			23.538			-3.923
15605.000			23.533			-3.922
15704.000			23.530			-3.922
15804.000			23.525			-3.921
15905.000			23.518			-3.920
16004.000			23.515			-3.919
16103.000			23.511			-3.919
16205.000			23.507			-3.918
16304.000			23.503			-3.917
16404.000			23.500			-3.917
16505.000			23.497			-3.916
16604.000			23.490			-3.915
16705.000			23.486			-3.914
16803.000			23.483			-3.914
16904.000			23.479			-3.913
17005.000			23.475			-3.913
17104.000			23.473			-3.912
17204.000			23.470			-3.912
17305.000			23.462			-3.910
17404.000			23.459			-3.910
17503.000			23.455			-3.909
17605.000			23.451			-3.909
17704.000			23.448			-3.908
17804.000			23.446			-3.908
17905.000			23.443			-3.907
18004.000			23.439			-3.907
18104.000			23.432			-3.905
18204.000			23.430			-3.905
18304.000			23.426			-3.904
18404.000			23.422			-3.904
18505.000			23.420			-3.903
18604.000			23.418			-3.903
18703.000			23.414			-3.902
18805.000			23.407			-3.901
18904.000			23.404			-3.901
19004.000			23.401			-3.900
19105.000			23.398			-3.900
19204.000			23.394			-3.899
19304.000			23.392			-3.899
19404.000			23.389			-3.898
19504.000			23.384			-3.897
19604.000			23.380			-3.897
19704.000			23.376			-3.896
19804.000			23.374			-3.896
19905.000			23.371			-3.895
20004.000			23.369			-3.895
20103.000			23.367			-3.894
20205.000			23.359			-3.893
20304.000			23.356			-3.893
20404.000			23.354			-3.892
20505.000			23.352			-3.892
20604.000			23.349			-3.891
20704.000			23.345			-3.891
20804.000			23.343			-3.890
20904.000			23.340			-3.890
21004.000			23.334			-3.889
21105.000			23.332			-3.889
21204.000			23.329			-3.888
21304.000			23.327			-3.888
21405.000			23.324			-3.887
21503.000			23.322			-3.887
21604.000			23.319			-3.886
21705.000			23.312			-3.885
21804.000			23.310			-3.885
21904.000			23.307			-3.885
22004.000			23.306			-3.884
22104.000			23.304			-3.884
22204.000			23.300			-3.883
22305.000			23.297			-3.883
22404.000			23.292			-3.882
22504.000			23.289			-3.881
22605.000			23.286			-3.881
22703.000			23.284			-3.881
22804.000			23.280			-3.880
22905.000			23.279			-3.880
23004.000			23.276			-3.879
23105.000			23.271			-3.879
23204.000			23.269			-3.878
23304.000			23.266			-3.878
23404.000			23.264			-3.877
23504.000			23.262			-3.877
23604.000			23.259			-3.877
23705.000			23.257			-3.876
23804.000			23.254			-3.876
23904.000			23.249			-3.875
24005.000			23.247			-3.875
24103.000			23.245			-3.874
24204.000			23.243			-3.874
24305.000			23.241			-3.873
24404.000			23.238			-3.873
24504.000			23.236			-3.873
24604.000			23.231			-3.872
24704.000			23.229			-3.871
24804.000			23.225			-3.871
24905.000			23.223			-3.871
25004.000			23.221			-3.870
25104.000			23.219			-3.870
25205.000			23.217			-3.869
25303.000			23.212			-3.869
25404.000			23.210			-3.868
25505.000			23.208			-3.868
25604.000			23.205			-3.868
25704.000			23.203			-3.867
25805.000			23.200			-3.867
25904.000			23.198			-3.866
26003.000			23.195			-3.866
26105.000			23.192			-3.865
26204.000			23.190			-3.865
26305.000			23.189			-3.865
26404.000			23.185			-3.864
26503.000			23.182			-3.864
26605.000			23.180			-3.863
26704.000			23.178			-3.863
26804.000			23.174			-3.862
26905.000			23.172			-3.862
27004.000			23.170			-3.862
27104.000			23.169			-3.861
27204.000			23.166			-3.861
27304.000			23.164			-3.861
27404.000			23.161			-3.860
27505.000			23.158			-3.860
27604.000			23.156			-3.859
27704.000			23.153			-3.859
27805.000			23.151			-3.859
27903.000			23.149			-3.858
28004.000			23.148			-3.858
28105.000			23.147			-3.858
28204.000			23.141			-3.857
28304.000			23.140			-3.857
28405.000			23.138			-3.856
28504.000			23.135			-3.856
28603.000			23.134			-3.856
28705.000			23.132			-3.855
28804.000			23.130			-3.855
28904.000			23.125			-3.854
29005.000			23.122			-3.854
29104.000			23.122			-3.854
29204.000			23.120			-3.853
29303.000			23.118			-3.853
29404.000			23.116			-3.853
29505.000			23.114			-3.852
29604.000			23.112			-3.852
29704.000			23.108			-3.851
29804.000			23.107			-3.851
29904.000			23.104			-3.851
30003.000			23.102			-3.850
30105.000			23.100			-3.850
30204.000			23.098			-3.850
30304.000			23.096			-3.849
30405.000			23.092			-3.849
30503.000			23.090			-3.848
30604.000			23.088			-3.848
30705.000			23.087			-3.848
30804.000			23.086			-3.848
30904.000			23.084			-3.847
31005.000			23.082			-3.847
31104.000			23.079			-3.846
31203.000			23.078			-3.846
31305.000			23.076			-3.846
31404.000			23.074			-3.846
31504.000			23.071			-3.845
31605.000			23.068			-3.845
31704.000			23.068			-3.845
31804.000			23.064			-3.844
31904.000			23.061			-3.844
32004.000			23.060			-3.843
32104.000			23.058			-3.843
32205.000			23.057			-3.843
32304.000			23.055			-3.842
32403.000			23.054			-3.842
32505.000			23.052			-3.842
32604.000			23.047			-3.841
32705.000			23.046			-3.841
32804.000			23.044			-3.841
32904.000			23.042			-3.840
33005.000			23.041			-3.840
33103.000			23.039			-3.840
33204.000			23.036			-3.839
33305.000			23.035			-3.839
33404.000			23.032			-3.839
33504.000			23.030			-3.838
33604.000			23.028			-3.838
33704.000			23.026			-3.838
33804.000			23.025			-3.837
33905.000			23.022			-3.837
34004.000			23.020			-3.837
34104.000			23.018			-3.836
34205.000			23.016			-3.836
34303.000			23.015			-3.836
34404.000			23.014			-3.836
34505.000			23.011			-3.835
34604.000			23.010			-3.835
34704.000			23.006			-3.834
34805.000			23.005			-3.834
34904.000			23.004			-3.834
35003.000			23.003			-3.834
35105.000			23.001			-3.833
35204.000			22.998			-3.833
35304.000			22.996			-3.833
35405.000			22.996			-3.833
35503.000			22.993			-3.832
35604.000			22.993			-3.832
35705.000			22.989			-3.832
35804.000			22.988			-3.831
35905.000			22.987			-3.831
36004.000			22.984			-3.831
36104.000			22.983			-3.831
36204.000			22.980			-3.830
36304.000			22.978			-3.830
36403.000			22.978			-3.830
36505.000			22.976			-3.829
36604.000			22.973			-3.829
36704.000			22.971			-3.829
36805.000			22.970			-3.828
36904.000			22.967			-3.828
37004.000			22.966			-3.828
37104.000			22.965			-3.827
37204.000			22.963			-3.827
37304.000			22.961			-3.827
37405.000			22.960			-3.827
37504.000			22.958			-3.826
37604.000			22.957			-3.826
37705.000			22.954			-3.826
37803.000			22.953			-3.825
37904.000			22.952			-3.825
38005.000			22.950			-3.825
38104.000			22.948			-3.825
38204.000			22.946			-3.824
38305.000			22.944			-3.824
38404.000			22.942			-3.824
38503.000			22.941			-3.823
38605.000			22.939			-3.823
38704.000			22.937			-3.823
38804.000			22.935			-3.823
38905.000			22.935			-3.823
39004.000			22.933			-3.822
39105.000			22.931			-3.822
39203.000			22.929			-3.822
39304.000			22.928			-3.821
39405.000			22.926			-3.821
39504.000			22.925			-3.821
39604.000			22.923			-3.821
39705.000			22.922			-3.820
39804.000			22.920			-3.820
39903.000			22.919			-3.820
40005.000			22.916			-3.819
40104.000			22.915			-3.819
40204.000			22.913			-3.819
40305.000			22.912			-3.819
40403.000			22.911			-3.819
40504.000			22.910			-3.818
40605.000			22.907			-3.818
40704.000			22.906			-3.818
40804.000			22.904			-3.817
40905.000			22.903			-3.817
41004.000			22.901			-3.817
41103.000			22.900			-3.817
41205.000			22.900			-3.817
41304.000			22.897			-3.816
41404.000			22.895			-3.816
41505.000			22.894			-3.816
41604.000			22.893			-3.816
41704.000			22.891			-3.815
41804.000			22.890			-3.815
41904.000			22.889			-3.815
42004.000			22.886			-3.814
42104.000			22.885			-3.814
42204.000			22.884			-3.814
42305.000			22.882			-3.814
42404.000			22.880			-3.813
42503.000			22.879			-3.813
42605.000			22.879			-3.813
42704.000			22.875			-3.812
42804.000			22.874			-3.812
42905.000			22.872			-3.812
43004.000			22.871			-3.812
43104.000			22.870			-3.812
43204.000			22.869			-3.812
43304.000			22.868			-3.811
43404.000			22.866			-3.811
43505.000			22.863			-3.810
43604.000			22.862			-3.810
43703.000			22.861			-3.810
43805.000			22.859			-3.810
43904.000			22.857			-3.810
44004.000			22.856			-3.809
44105.000			22.856			-3.809
44204.000			22.853			-3.809
44304.000			22.851			-3.809
44404.000			22.849			-3.808
44504.000			22.848			-3.808
44603.000			22.848			-3.808
44705.000			22.847			-3.808
44804.000			22.845			-3.808
44904.000			22.842			-3.807
45005.000			22.841			-3.807
45103.000			22.841			-3.807
45204.000			22.839			-3.807
45305.000			22.837			-3.806
45404.000			22.835			-3.806
45505.000			22.834			-3.806
45604.000			22.832			-3.805
45704.000			22.831			-3.805
45804.000			22.830			-3.805
45904.000			22.829			-3.805
46004.000			22.828			-3.805
46105.000			22.826			-3.804
46204.000			22.825			-3.804
46304.000			22.824			-3.804
46405.000			22.821			-3.804
46503.000			22.821			-3.804
46604.000			22.820			-3.803
46705.000			22.818			-3.803
46804.000			22.816			-3.803
46904.000			22.815			-3.802
47005.000			22.814			-3.802
47104.000			22.811			-3.802
47203.000			22.810			-3.802
47305.000			22.809			-3.802
47404.000			22.808			-3.801
47504.000			22.806			-3.801
47605.000			22.805			-3.801
47704.000			22.804			-3.801
47804.000			22.802			-3.800
47904.000			22.802			-3.800
48004.000			22.800			-3.800
48104.000			22.798			-3.800
48205.000			22.797			-3.799
48304.000			22.796			-3.799
48404.000			22.795			-3.799
48505.000			22.794			-3.799
48603.000			22.792			-3.799
48705.000			22.790			-3.798
48804.000			22.789			-3.798
48904.000			22.788			-3.798
49005.000			22.787			-3.798
49104.000			22.785			-3.798
49204.000			22.784			-3.797
49304.000			22.783			-3.797
49404.000			22.782			-3.797
49504.000			22.780			-3.797
49605.000			22.779			-3.797
49704.000			22.778			-3.796
49804.000			22.776			-3.796
49905.000			22.775			-3.796
50003.000			22.772			-3.795
50104.000			22.772			-3.795
50205.000			22.771			-3.795
50304.000			22.769			-3.795
50404.000			22.768			-3.795
50505.000			22.767			-3.795
50604.000			22.766			-3.794
50703.000			22.764			-3.794
50805.000			22.762			-3.794
50904.000			22.761			-3.794
51004.000			22.759			-3.793
51105.000			22.759			-3.793
51204.000			22.758			-3.793
51304.000			22.757			-3.793
51404.000			22.755			-3.792
51504.000			22.753			-3.792
51604.000			22.751			-3.792
51704.000			22.752			-3.792
51804.000			22.751			-3.792
51904.000			22.750			-3.792
52004.000			22.748			-3.791
52104.000			22.746			-3.791
52205.000			22.745			-3.791
52304.000			22.743			-3.791
52404.000			22.742			-3.790
52505.000			22.741			-3.790
52603.000			22.740			-3.790
52704.000			22.740			-3.790
52805.000			22.738			-3.790
52904.000			22.736			-3.789
53004.000			22.733			-3.789
53105.000			22.733			-3.789
53204.000			22.733			-3.789
53303.000			22.733			-3.789
53405.000			22.731			-3.789
53504.000			22.731			-3.788
53604.000			22.728			-3.788
53705.000			22.727			-3.788
53804.000			22.726			-3.788
53904.000			22.724			-3.787
54004.000			22.723			-3.787
54104.000			22.722			-3.787
54204.000			22.721			-3.787
54305.000			22.720			-3.787
54404.000			22.718			-3.786
54503.000			22.717			-3.786
54605.000			22.716			-3.786
54704.000			22.716			-3.786
54804.000			22.714			-3.786
54905.000			22.712			-3.785
55004.000			22.712			-3.785
55105.000			22.710			-3.785
55203.000			22.709			-3.785
55304.000			22.708			-3.785
55405.000			22.707			-3.785
55504.000			22.706			-3.784
55604.000			22.705			-3.784
55705.000			22.704			-3.784
55804.000			22.702			-3.784
55903.000			22.701			-3.783
56005.000			22.699			-3.783
56104.000			22.699			-3.783
56204.000			22.699			-3.783
56305.000			22.697			-3.783
56404.000			22.695			-3.783
56504.000			22.693			-3.782
56604.000			22.692			-3.782
56704.000			22.691			-3.782
56804.000			22.691			-3.782
56905.000			22.689			-3.782
57004.000			22.688			-3.781
57104.000			22.687			-3.781
57205.000			22.686			-3.781
57303.000			22.685			-3.781
57404.000			22.684			-3.781
57505.000			22.682			-3.780
57604.000			22.682			-3.780
57704.000			22.682			-3.780
57805.000			22.680			-3.780
57904.000			22.679			-3.780
58003.000			22.677			-3.780
58105.000			22.676			-3.779
58204.000			22.675			-3.779
58305.000			22.674			-3.779
58404.000			22.673			-3.779
58504.000			22.673			-3.779
58605.000			22.672			-3.779
58703.000			22.669			-3.778
58804.000			22.667			-3.778
58905.000			22.667			-3.778
59004.000			22.667			-3.778
59104.000			22.666			-3.778
59205.000			22.665			-3.778
59304.000			22.664			-3.777
59403.000			22.662			-3.777
59505.000			22.662			-3.777
59604.000			22.661			-3.777
59704.000			22.660			-3.777
59805.000			22.658			-3.776
59904.000			22.659			-3.776
60004.000			22.657			-3.776
60104.000			22.655			-3.776
60204.000			22.655			-3.776
60304.000			22.654			-3.776
60405.000			22.653			-3.776
60504.000			22.653			-3.775
60604.000			22.652			-3.775
60705.000			22.650			-3.775
60803.000			22.649			-3.775
60904.000			22.648			-3.775
61005.000			22.648			-3.775
61104.000			22.647			-3.775
61204.000			22.646			-3.774
61304.000			22.644			-3.774
61404.000			22.645			-3.774
61504.000			22.643			-3.774
61604.000			22.641			-3.773
61704.000			22.640			-3.773
61805.000			22.640			-3.773
61904.000			22.639			-3.773
62004.000			22.638			-3.773
62105.000			22.636			-3.773
62203.000			22.635			-3.773
62304.000			22.634			-3.772
62405.000			22.632			-3.772
62504.000			22.630			-3.772
62604.000			22.629			-3.771
62704.000			22.629			-3.772
62804.000			22.628			-3.771
62903.000			22.627			-3.771
63005.000			22.626			-3.771
63104.000			22.624			-3.771
63204.000			22.624			-3.771
63305.000			22.623			-3.771
63403.000			22.622			-3.770
63504.000			22.621			-3.770
63605.000			22.620			-3.770
63704.000			22.620			-3.770
63804.000			22.617			-3.770
63905.000			22.615			-3.769
64004.000			22.615			-3.769
64103.000			22.614			-3.769
64205.000			22.614			-3.769
64304.000			22.612			-3.769
64404.000			22.611			-3.769
64505.000			22.609			-3.768
64604.000			22.609			-3.768
64705.000			22.609			-3.768
64803.000			22.607			-3.768
64904.000			22.606			-3.768
65005.000			22.606			-3.768
65104.000			22.605			-3.767
65204.000			22.602			-3.767
65304.000			22.601			-3.767
65404.000			22.601			-3.767
65503.000			22.601			-3.767
65605.000			22.600			-3.767
65704.000			22.599			-3.766
65804.000			22.598			-3.766
65905.000			22.597			-3.766
66004.000			22.595			-3.766
66104.000			22.594			-3.766
66204.000			22.591			-3.765
66304.000			22.591			-3.765
66404.000			22.590			-3.765
66505.000			22.589			-3.765
66604.000			22.589			-3.765
66704.000			22.588			-3.765
66805.000			22.587			-3.765
66903.000			22.586			-3.764
67004.000			22.585			-3.764
67105.000			22.584			-3.764
67204.000			22.582			-3.764
67304.000			22.582			-3.764
67405.000			22.580			-3.763
67504.000			22.579			-3.763
67603.000			22.579			-3.763
67705.000			22.577			-3.763
67804.000			22.576			-3.763
67905.000			22.577			-3.763
68004.000			22.576			-3.763
68104.000			22.573			-3.762
68205.000			22.572			-3.762
68303.000			22.572			-3.762
68404.000			22.572			-3.762
68505.000			22.570			-3.762
68604.000			22.570			-3.762
68704.000			22.569			-3.761
68805.000			22.568			-3.761
68904.000			22.566			-3.761
69003.000			22.565			-3.761
69105.000			22.565			-3.761
69204.000			22.563			-3.760
69304.000			22.561			-3.760
69405.000			22.561			-3.760
69504.000			22.561			-3.760
69604.000			22.559			-3.760
69704.000			22.558			-3.760
69804.000			22.558			-3.760
69904.000			22.557			-3.759
70005.000			22.556			-3.759
70104.000			22.556			-3.759
70204.000			22.555			-3.759
70305.000			22.554			-3.759
70403.000			22.553			-3.759
70504.000			22.551			-3.759
70605.000			22.551			-3.758
70704.000			22.549			-3.758
70804.000			22.549			-3.758
70904.000			22.550			-3.758
71004.000			22.547			-3.758
71104.000			22.547			-3.758
71204.000			22.547			-3.758
71304.000			22.546			-3.758
71405.000			22.546			-3.758
71504.000			22.545			-3.757
71604.000			22.544			-3.757
71705.000			22.543			-3.757
71803.000			22.541			-3.757
71904.000			22.542			-3.757
72005.000			22.541			-3.757
72104.000			22.540			-3.757
72204.000			22.539			-3.756
72305.000			22.539			-3.756
72404.000			22.538			-3.756
72503.000			22.537			-3.756
72605.000			22.536			-3.756
72704.000			22.535			-3.756
72804.000			22.534			-3.756
72905.000			22.534			-3.756
73004.000			22.533			-3.755
73104.000			22.532			-3.755
73204.000			22.530			-3.755
73304.000			22.529			-3.755
73404.000			22.530			-3.755
73505.000			22.528			-3.755
73604.000			22.526			-3.754
73703.000			22.526			-3.754
73805.000			22.527			-3.754
73904.000			22.524			-3.754
74004.000			22.523			-3.754
74105.000			22.523			-3.754
74204.000			22.521			-3.754
74305.000			22.519			-3.753
74403.000			22.519			-3.753
74504.000			22.518			-3.753
74605.000			22.517			-3.753
74704.000			22.518			-3.753
74804.000			22.516			-3.753
74905.000			22.514			-3.752
75004.000			22.513			-3.752
75103.000			22.512			-3.752
75205.000			22.512			-3.752
75304.000			22.512			-3.752
75404.000			22.509			-3.751
75505.000			22.509			-3.751
75604.000			22.508			-3.751
75704.000			22.508			-3.751
75804.000			22.507			-3.751
75904.000			22.506			-3.751
76004.000			22.505			-3.751
76105.000			22.501			-3.750
76204.000			22.502			-3.750
76304.000			22.501			-3.750
76405.000			22.500			-3.750
76503.000			22.500			-3.750
76604.000			22.499			-3.750
76705.000			22.498			-3.750
76804.000			22.498			-3.750
76904.000			22.497			-3.749
77005.000			22.495			-3.749
77104.000			22.495			-3.749
77203.000			22.494			-3.749
77305.000			22.493			-3.749
77404.000			22.492			-3.749
77505.000			22.491			-3.749
77604.000			22.490			-3.748
77704.000			22.489			-3.748
77805.000			22.488			-3.748
77904.000			22.487			-3.748
78004.000			22.487			-3.748
78104.000			22.487			-3.748
78204.000			22.486			-3.748
78304.000			22.485			-3.747
78405.000			22.485			-3.747
78504.000			22.484			-3.747
78604.000			22.484			-3.747
78705.000			22.484			-3.747
78803.000			22.483			-3.747
78904.000			22.482			-3.747
79005.000			22.481			-3.747
79104.000			22.481			-3.747
79204.000			22.481			-3.747
79305.000			22.481			-3.747
79404.000			22.479			-3.747
79503.000			22.479			-3.746
79605.000			22.477			-3.746
79704.000			22.477			-3.746
79804.000			22.476			-3.746
79905.000			22.476			-3.746
80004.000			22.474			-3.746
80104.000			22.473			-3.746
80204.000			22.474			-3.746
80304.000			22.474			-3.746
80404.000			22.473			-3.745
80504.000			22.471			-3.745
80604.000			22.470			-3.745
80705.000			22.469			-3.745
80804.000			22.468			-3.745
80903.000			22.467			-3.744
81005.000			22.467			-3.745
81104.000			22.466			-3.744
81204.000			22.465			-3.744
81305.000			22.464			-3.744
81403.000			22.464			-3.744
81504.000			22.463			-3.744
81605.000			22.463			-3.744
81704.000			22.462			-3.744
81804.000			22.462			-3.744
81905.000			22.460			-3.743
82004.000			22.459			-3.743
82103.000			22.459			-3.743
82205.000			22.457			-3.743
82304.000			22.457			-3.743
82404.000			22.457			-3.743
82505.000			22.456			-3.743
82604.000			22.455			-3.743
82704.000			22.454			-3.742
82804.000			22.453			-3.742
82904.000			22.453			-3.742
83004.000			22.452			-3.742
83105.000			22.451			-3.742
83204.000			22.451			-3.742
83304.000			22.449			-3.742
83405.000			22.450			-3.742
83503.000			22.449			-3.741
83604.000			22.449			-3.741
83705.000			22.447			-3.741
83804.000			22.446			-3.741
83905.000			22.446			-3.741
84004.000			22.447			-3.741
84104.000			22.444			-3.741
84204.000			22.445			-3.741
84304.000			22.444			-3.741
84404.000			22.443			-3.740
84505.000			22.442			-3.740
84604.000			22.442			-3.740
84704.000			22.442			-3.740
84805.000			22.441			-3.740
84903.000			22.440			-3.740
85004.000			22.439			-3.740
85105.000			22.439			-3.740
85204.000			22.439			-3.740
85304.000			22.438			-3.740
85405.000			22.438			-3.740
85504.000			22.437			-3.739
85603.000			22.436			-3.739
85705.000			22.435			-3.739
85804.000			22.435			-3.739
85904.000			22.434			-3.739
86005.000			22.433			-3.739
86104.000			22.433			-3.739
86204.000			22.432			-3.739
86304.000			22.432			-3.739
86404.000			22.431			-3.739
86504.000			22.430			-3.738
86605.000			22.430			-3.738
86704.000			22.429			-3.738
86804.000			22.427			-3.738
86905.000			22.427			-3.738
87003.000			22.426			-3.738
87105.000			22.425			-3.737
87204.000			22.424			-3.737
87304.000			22.424			-3.737
87405.000			22.423			-3.737
87504.000			22.422			-3.737
87604.000			22.421			-3.737
87704.000			22.420			-3.737
87804.000			22.419			-3.737
87904.000			22.419			-3.736
88005.000			22.418			-3.736
88104.000			22.418			-3.736
88204.000			22.416			-3.736
88305.000			22.415			-3.736
88403.000			22.415			-3.736
88504.000			22.413			-3.736
88605.000			22.412			-3.735
88704.000			22.412			-3.735
88804.000			22.411			-3.735
88905.000			22.410			-3.735
89004.000			22.410			-3.735
89103.000			22.409			-3.735
89205.000			22.407			-3.734
89304.000			22.406			-3.734
89404.000			22.406			-3.734
89505.000			22.406			-3.734
89604.000			22.404			-3.734
89704.000			22.403			-3.734
89804.000			22.402			-3.734
89904.000			22.401			-3.733
90004.000			22.401			-3.733
90104.000			22.399			-3.733
90204.000			22.398			-3.733
90305.000			22.398			-3.733
90404.000			22.398			-3.733
90503.000			22.396			-3.733
90605.000			22.396			-3.733
90704.000			22.395			-3.732
90804.000			22.394			-3.732
90905.000			22.392			-3.732
91004.000			22.391			-3.732
91104.000			22.391			-3.732
91204.000			22.391			-3.732
91304.000			22.390			-3.732
91404.000			22.388			-3.731
91505.000			22.388			-3.731
91604.000			22.388			-3.731
91704.000			22.387			-3.731
91805.000			22.386			-3.731
91903.000			22.385			-3.731
92004.000			22.383			-3.731
92105.000			22.384			-3.731
92204.000			22.383			-3.730
92304.000			22.382			-3.730
92405.000			22.382			-3.730
92504.000			22.381			-3.730
92603.000			22.380			-3.730
92705.000			22.380			-3.730
92804.000			22.377			-3.730
92904.000			22.377			-3.730
93005.000			22.377			-3.729
93104.000			22.376			-3.729
93204.000			22.375			-3.729
93303.000			22.374			-3.729
93404.000			22.373			-3.729
93505.000			22.373			-3.729
93604.000			22.372			-3.729
93704.000			22.372			-3.729
93805.000			22.371			-3.728
93904.000			22.371			-3.728
94003.000			22.371			-3.728
94105.000			22.368			-3.728
94204.000			22.367			-3.728
94304.000			22.366			-3.728
94405.000			22.365			-3.728
94504.000			22.365			-3.728
94604.000			22.366			-3.728
94704.000			22.365			-3.727
94804.000			22.365			-3.727
94904.000			22.364			-3.727
95005.000			22.362			-3.727
95104.000			22.360			-3.727
95204.000			22.360			-3.727
95305.000			22.361			-3.727
95403.000			22.360			-3.727
95504.000			22.360			-3.727
95605.000			22.359			-3.726
95704.000			22.357			-3.726
95804.000			22.357			-3.726
95905.000			22.356			-3.726
96004.000			22.355			-3.726
96103.000			22.355			-3.726
96205.000			22.354			-3.726
96304.000			22.354			-3.726
96404.000			22.354			-3.726
96505.000			22.351			-3.725
96604.000			22.351			-3.725
96705.000			22.351			-3.725
96803.000			22.350			-3.725
96904.000			22.349			-3.725
97005.000			22.349			-3.725
97104.000			22.350			-3.725
97204.000			22.347			-3.725
97305.000			22.346			-3.724
97404.000			22.345			-3.724
97503.000			22.344			-3.724
97605.000			22.344			-3.724
97704.000			22.344			-3.724
97804.000			22.342			-3.724
97905.000			22.342			-3.724
98004.000			22.342			-3.724
98104.000			22.341			-3.724
98204.000			22.341			-3.724
98304.000			22.341			-3.723
98404.000			22.340			-3.723
98505.000			22.340			-3.723
98604.000			22.338			-3.723
98704.000			22.338			-3.723
98805.000			22.338			-3.723
98903.000			22.337			-3.723
99004.000			22.337			-3.723
99105.000			22.336			-3.723
99204.000			22.336			-3.723
99304.000			22.335			-3.722
99405.000			22.333			-3.722
99504.000			22.333			-3.722
99603.000			22.332			-3.722
99705.000			22.331			-3.722
99804.000			22.331			-3.722
99905.000			22.330			-3.722
100004.000			22.329			-3.722
100104.000			22.329			-3.721
100205.000			22.327			-3.721
100303.000			22.327			-3.721
100404.000			22.326			-3.721
100505.000			22.326			-3.721
100604.000			22.325			-3.721
100704.000			22.324			-3.721
100804.000			22.324			-3.721
100904.000			22.323			-3.720
101003.000			22.322			-3.720
101105.000			22.321			-3.720
101204.000			22.321			-3.720
101304.000			22.321			-3.720
101405.000			22.321			-3.720
101503.000			22.318			-3.720
101604.000			22.318			-3.720
101705.000			22.318			-3.720
101804.000			22.317			-3.720
101904.000			22.318			-3.720
102005.000			22.317			-3.719
102104.000			22.316			-3.719
102203.000			22.316			-3.719
102305.000			22.315			-3.719
102404.000			22.314			-3.719
102504.000			22.313			-3.719
102605.000			22.313			-3.719
102704.000			22.313			-3.719
102804.000			22.313			-3.719
102903.000			22.313			-3.719
103004.000			22.312			-3.719
103105.000			22.312			-3.719
103204.000			22.312			-3.719
103304.000			22.311			-3.718
103405.000			22.310			-3.718
103504.000			22.310			-3.718
103603.000			22.310			-3.718
103705.000			22.308			-3.718
103804.000			22.309			-3.718
103904.000			22.308			-3.718
104005.000			22.308			-3.718
104104.000			22.308			-3.718
104204.000			22.307			-3.718
104304.000			22.306			-3.718
104404.000			22.306			-3.718
104504.000			22.305			-3.718
104605.000			22.304			-3.717
104704.000			22.303			-3.717
104804.000			22.304			-3.717
104905.000			22.304			-3.717
105003.000			22.302			-3.717
105104.000			22.301			-3.717
105205.000			22.300			-3.717
105304.000			22.301			-3.717
105404.000			22.300			-3.717
105505.000			22.299			-3.717
105604.000			22.299			-3.716
105703.000			22.297			-3.716
105805.000			22.298			-3.716
105904.000			22.297			-3.716
106004.000			22.296			-3.716
106105.000			22.297			-3.716
106204.000			22.294			-3.716
106305.000			22.294			-3.716
106403.000			22.294			-3.716
106504.000			22.293			-3.716
106605.000			22.292			-3.715
106704.000			22.292			-3.715
106804.000			22.292			-3.715
106905.000			22.291			-3.715
107004.000			22.291			-3.715
107103.000			22.289			-3.715
107205.000			22.290			-3.715
107304.000			22.289			-3.715
107404.000			22.288			-3.715
107505.000			22.289			-3.715
107604.000			22.289			-3.715
107704.000			22.287			-3.714
107804.000			22.287			-3.714
107904.000			22.286			-3.714
108003.000			22.286			-3.714
108105.000			22.285			-3.714
108204.000			22.284			-3.714
108304.000			22.283			-3.714
108405.000			22.283			-3.714
108504.000			22.283			-3.714
108604.000			22.282			-3.714
108704.000			22.282			-3.714
108804.000			22.280			-3.713
108904.000			22.279			-3.713
109005.000			22.279			-3.713
109104.000			22.279			-3.713
109204.000			22.278			-3.713
109305.000			22.276			-3.713
109403.000			22.276			-3.713
109505.000			22.275			-3.712
109604.000			22.274			-3.712
109704.000			22.273			-3.712
109805.000			22.272			-3.712
109904.000			22.272			-3.712
110004.000			22.272			-3.712
110104.000			22.271			-3.712
110204.000			22.270			-3.712
110304.000			22.268			-3.711
110405.000			22.269			-3.711
110504.000			22.268			-3.711
110604.000			22.267			-3.711
110705.000			22.266			-3.711
110803.000			22.265			-3.711
110904.000			22.265			-3.711
111005.000			22.264			-3.711
111104.000			22.263			-3.710
111204.000			22.263			-3.710
111305.000			22.263			-3.710
111404.000			22.263			-3.710
111503.000			22.261			-3.710
111605.000			22.261			-3.710
111704.000			22.258			-3.710
111804.000			22.259			-3.710
111905.000			22.259			-3.710
112004.000			22.258			-3.710
112104.000			22.256			-3.709
112204.000			22.256			-3.709
112304.000			22.257			-3.709
112404.000			22.255			-3.709
112504.000			22.254			-3.709
112604.000			22.252			-3.709
112705.000			22.252			-3.709
112804.000			22.253			-3.709
112903.000			22.252			-3.709
113005.000			22.250			-3.708
113104.000			22.250			-3.708
113204.000			22.249			-3.708
113305.000			22.248			-3.708
113404.000			22.248			-3.708
113504.000			22.248			-3.708
113604.000			22.248			-3.708
113704.000			22.247			-3.708
113804.000			22.246			-3.708
113905.000			22.246			-3.708
114004.000			22.246			-3.708
114104.000			22.246			-3.708
114205.000			22.244			-3.707
114303.000			22.244			-3.707
114404.000			22.244			-3.707
114505.000			22.244			-3.707
114604.000			22.243			-3.707
114704.000			22.243			-3.707
114805.000			22.242			-3.707
114904.000			22.241			-3.707
115003.000			22.241			-3.707
115105.000			22.240			-3.707
115204.000			22.240			-3.707
115304.000			22.238			-3.706
115405.000			22.238			-3.706
115504.000			22.238			-3.706
115604.000			22.237			-3.706
115703.000			22.237			-3.706
115804.000			22.236			-3.706
115905.000			22.236			-3.706
116004.000			22.235			-3.706
116104.000			22.235			-3.706
116205.000			22.234			-3.706
116304.000			22.234			-3.706
116403.000			22.233			-3.706
116505.000			22.232			-3.705
116604.000			22.231			-3.705
116704.000			22.230			-3.705
116805.000			22.230			-3.705
116904.000			22.230			-3.705
117004.000			22.230			-3.705
117104.000			22.228			-3.705
117204.000			22.228			-3.705
117304.000			22.228			-3.705
117405.000			22.227			-3.704
117504.000			22.227			-3.704
117604.000			22.227			-3.704
117705.000			22.226			-3.704
117803.000			22.224			-3.704
117904.000			22.223			-3.704
118005.000			22.223			-3.704
118104.000			22.224			-3.704
118204.000			22.222			-3.704
118305.000			22.222			-3.704
118404.000			22.221			-3.703
118503.000			22.220			-3.703
118605.000			22.220			-3.703
118704.000			22.220			-3.703
118804.000			22.218			-3.703
118905.000			22.219			-3.703
119004.000			22.218			-3.703
119105.000			22.217			-3.703
119203.000			22.216			-3.703
119304.000			22.216			-3.703
119405.000			22.215			-3.703
119504.000			22.214			-3.702
119604.000			22.214			-3.702
119705.000			22.215			-3.702
119804.000			22.214			-3.702
119903.000			22.213			-3.702
120005.000			22.212			-3.702
120104.000			22.212			-3.702
120204.000			22.211			-3.702
120305.000			22.211			-3.702
120404.000			22.209			-3.702
120504.000			22.209			-3.701
120604.000			22.210			-3.702
120704.000			22.209			-3.702
120804.000			22.208			-3.701
120905.000			22.207			-3.701
121004.000			22.206			-3.701
121104.000			22.206			-3.701
121205.000			22.206			-3.701
121303.000			22.206			-3.701
121404.000			22.205			-3.701
121505.000			22.204			-3.701
121604.000			22.204			-3.701
121704.000			22.204			-3.701
121805.000			22.203			-3.701
121904.000			22.201			-3.700
122003.000			22.201			-3.700
122105.000			22.201			-3.700
122204.000			22.201			-3.700
122305.000			22.201			-3.700
122404.000			22.200			-3.700
122504.000			22.199			-3.700
122605.000			22.199			-3.700
122703.000			22.198			-3.700
122804.000			22.198			-3.700
122905.000			22.199			-3.700
123004.000			22.198			-3.700
123104.000			22.197			-3.699
123205.000			22.196			-3.699
123304.000			22.196			-3.699
123403.000			22.195			-3.699
123505.000			22.194			-3.699
123604.000			22.193			-3.699
123704.000			22.194			-3.699
123805.000			22.194			-3.699
123904.000			22.193			-3.699
124004.000			22.192			-3.699
124104.000			22.191			-3.698
124204.000			22.190			-3.698
124304.000			22.190			-3.698
124405.000			22.190			-3.698
124504.000			22.189			-3.698
124604.000			22.189			-3.698
124705.000			22.189			-3.698
124803.000			22.187			-3.698
124904.000			22.186			-3.698
125005.000			22.186			-3.698
125104.000			22.185			-3.698
125204.000			22.186			-3.698
125304.000			22.185			-3.698
125404.000			22.184			-3.697
125504.000			22.184			-3.697
125604.000			22.184			-3.697
125704.000			22.183			-3.697
125805.000			22.182			-3.697
125904.000			22.183			-3.697
126004.000			22.182			-3.697
126105.000			22.181			-3.697
126203.000			22.181			-3.697
126304.000			22.180			-3.697
126405.000			22.180			-3.697
126504.000			22.179			-3.696
126604.000			22.178			-3.696
126705.000			22.178			-3.696
126804.000			22.178			-3.696
126903.000			22.178			-3.696
127005.000			22.176			-3.696
127103.000			22.176			-3.696
127204.000			22.176			-3.696
127305.000			22.174			-3.696
127404.000			22.174			-3.696
127504.000			22.173			-3.696
127605.000			22.173			-3.695
127704.000			22.172			-3.695
127803.000			22.172			-3.695
127905.000			22.173			-3.695
128004.000			22.172			-3.695
128104.000			22.172			-3.695
128205.000			22.171			-3.695
128304.000			22.172			-3.695
128404.000			22.171			-3.695
128503.000			22.171			-3.695
128604.000			22.170			-3.695
128705.000			22.171			-3.695
128804.000			22.171			-3.695
128904.000			22.169			-3.695
129005.000			22.168			-3.695
129104.000			22.167			-3.695
129203.000			22.167			-3.694
129305.000			22.166			-3.694
129404.000			22.166			-3.694
129504.000			22.165			-3.694
129605.000			22.165			-3.694
129704.000			22.164			-3.694
129804.000			22.164			-3.694
129904.000			22.163			-3.694
130004.000			22.163			-3.694
130103.000			22.162			-3.694
130205.000			22.161			-3.694
130304.000			22.161			-3.693
130404.000			22.159			-3.693
130505.000			22.160			-3.693
130603.000			22.159			-3.693
130704.000			22.159			-3.693
130805.000			22.158			-3.693
130904.000			22.158			-3.693
131004.000			22.158			-3.693
131105.000			22.158			-3.693
131204.000			22.157			-3.693
131304.000			22.155			-3.693
131405.000			22.156			-3.693
131503.000			22.155			-3.693
131604.000			22.153			-3.692
131705.000			22.153			-3.692
131804.000			22.153			-3.692
131905.000			22.153			-3.692
132004.000			22.152			-3.692
132104.000			22.151			-3.692
132204.000			22.152			-3.692
132304.000			22.151			-3.692
132403.000			22.150			-3.692
132505.000			22.151			-3.692
132604.000			22.150			-3.692
132704.000			22.149			-3.691
132805.000			22.147			-3.691
132904.000			22.148			-3.691
133004.000			22.148			-3.691
133104.000			22.147			-3.691
133204.000			22.146			-3.691
133304.000			22.146			-3.691
133405.000			22.146			-3.691
133504.000			22.146			-3.691
133604.000			22.145			-3.691
133705.000			22.145			-3.691
133804.000			22.145			-3.691
133904.000			22.144			-3.691
134004.000			22.144			-3.691
134104.000			22.144			-3.691
134204.000			22.143			-3.691
134305.000			22.143			-3.691
134404.000			22.143			-3.690
134504.000			22.143			-3.690
134605.000			22.142			-3.690
134703.000			22.142			-3.690
134804.000			22.142			-3.690
134905.000			22.141			-3.690
135004.000			22.140			-3.690
135105.000			22.141			-3.690
135204.000			22.140			-3.690
135304.000			22.138			-3.690
135405.000			22.138			-3.690
135504.000			22.138			-3.690
135603.000			22.138			-3.690
135705.000			22.137			-3.690
135804.000			22.136			-3.689
135904.000			22.136			-3.689
136005.000			22.135			-3.689
136104.000			22.135			-3.689
136204.000			22.134			-3.689
136304.000			22.134			-3.689
136404.000			22.134			-3.689
136503.000			22.133			-3.689
136605.000			22.133			-3.689
136704.000			22.133			-3.689
136804.000			22.133			-3.689
136905.000			22.132			-3.689
137004.000			22.132			-3.689
137104.000			22.130			-3.688
137204.000			22.131			-3.688
137304.000			22.132			-3.689
137404.000			22.131			-3.688
137505.000			22.129			-3.688
137604.000			22.129			-3.688
137704.000			22.130			-3.688
137805.000			22.129			-3.688
137903.000			22.128			-3.688
138004.000			22.128			-3.688
138103.000			22.127			-3.688
138204.000			22.127			-3.688
138305.000			22.127			-3.688
138404.000			22.127			-3.688
138504.000			22.128			-3.688
138605.000			22.124			-3.687
138704.000			22.123			-3.687
138803.000			22.124			-3.687
138905.000			22.124			-3.687
139004.000			22.124			-3.687
139104.000			22.123			-3.687
139205.000			22.122			-3.687
139304.000			22.122			-3.687
139404.000			22.123			-3.687
139505.000			22.122			-3.687
139604.000			22.120			-3.687
139703.000			22.119			-3.687
139805.000			22.119			-3.686
139904.000			22.118			-3.686
140004.000			22.118			-3.686
140105.000			22.118			-3.686
140204.000			22.117			-3.686
140304.000			22.117			-3.686
140404.000			22.116			-3.686
140504.000			22.116			-3.686
140603.000			22.115			-3.686
140705.000			22.114			-3.686
140804.000			22.114			-3.686
140904.000			22.114			-3.686
141005.000			22.113			-3.686
141104.000			22.113			-3.686
141204.000			22.112			-3.685
141303.000			22.112			-3.685
141404.000			22.112			-3.685
141505.000			22.112			-3.685
141604.000			22.111			-3.685
141704.000			22.110			-3.685
141805.000			22.110			-3.685
141904.000			22.109			-3.685
142003.000			22.108			-3.685
142105.000			22.108			-3.685
142204.000			22.107			-3.685
142304.000			22.106			-3.684
142405.000			22.107			-3.684
142504.000			22.106			-3.684
142604.000			22.106			-3.684
142704.000			22.106			-3.684
142804.000			22.106			-3.684
142903.000			22.106			-3.684
143005.000			22.104			-3.684
143104.000			22.104			-3.684
143204.000			22.103			-3.684
143305.000			22.103			-3.684
143404.000			22.102			-3.684
143504.000			22.103			-3.684
143604.000			22.101			-3.684
143704.000			22.101			-3.684
143804.000			22.100			-3.683
143905.000			22.099			-3.683
144004.000			22.100			-3.683
144104.000			22.099			-3.683
144205.000			22.099			-3.683
144303.000			22.099			-3.683
144404.000			22.097			-3.683
144503.000			22.096			-3.683
144604.000			22.096			-3.683
144705.000			22.096			-3.683
144804.000			22.095			-3.683
144904.000			22.095			-3.683
145005.000			22.095			-3.682
145104.000			22.094			-3.682
145203.000			22.094			-3.682
145305.000			22.093			-3.682
145403.000			22.093			-3.682
145504.000			22.093			-3.682
145605.000			22.092			-3.682
145704.000			22.091			-3.682
145804.000			22.091			-3.682
145905.000			22.090			-3.682
146004.000			22.089			-3.681
146103.000			22.089			-3.682
146205.000			22.090			-3.682
146304.000			22.089			-3.682
146404.000			22.089			-3.681
146505.000			22.089			-3.682
146604.000			22.089			-3.682
146704.000			22.089			-3.681
146805.000			22.088			-3.681
146904.000			22.089			-3.681
147003.000			22.089			-3.681
147105.000			22.088			-3.681
147203.000			22.088			-3.681
147304.000			22.088			-3.681
147405.000			22.087			-3.681
147504.000			22.086			-3.681
147604.000			22.086			-3.681
147704.000			22.086			-3.681
147804.000			22.086			-3.681
147904.000			22.086			-3.681
148004.000			22.085			-3.681
148103.000			22.084			-3.681
148205.000			22.083			-3.681
148304.000			22.083			-3.681
148404.000			22.083			-3.681
148505.000			22.083			-3.680
148604.000			22.082			-3.680
148704.000			22.083			-3.680
148804.000			22.082			-3.680
148904.000			22.082			-3.680
149003.000			22.082			-3.680
149105.000			22.082			-3.680
149204.000			22.081			-3.680
149304.000			22.081			-3.680
149405.000			22.082			-3.680
149504.000			22.081			-3.680
149604.000			22.081			-3.680
149704.000			22.080			-3.680
149804.000			22.079			-3.680
149903.000			22.078			-3.680
150005.000			22.077			-3.680
150104.000			22.077			-3.680
150204.000			22.076			-3.679
150305.000			22.075			-3.679
150404.000			22.075			-3.679
150504.000			22.076			-3.679
150604.000			22.076			-3.679
150704.000			22.075			-3.679
150804.000			22.074			-3.679
150904.000			22.073			-3.679
151004.000			22.073			-3.679
151105.000			22.072			-3.679
151204.000			22.071			-3.679
151304.000			22.071			-3.679
151405.000			22.071			-3.678
151503.000			22.071			-3.678
151604.000			22.069			-3.678
151705.000			22.069			-3.678
151804.000			22.069			-3.678
151904.000			22.068			-3.678
152005.000			22.066			-3.678
152104.000			22.066			-3.678
152203.000			22.066			-3.678
152305.000			22.066			-3.678
152404.000			22.066			-3.678
152504.000			22.066			-3.678
152605.000			22.064			-3.677
152704.000			22.064			-3.677
152804.000			22.063			-3.677
152905.000			22.063			-3.677
153004.000			22.062			-3.677
153103.000			22.060			-3.677
153205.000			22.059			-3.677
153304.000			22.060			-3.677
153404.000			22.060			-3.677
153505.000			22.059			-3.676
153604.000			22.058			-3.676
153704.000			22.059			-3.676
153805.000			22.057			-3.676
153904.000			22.056			-3.676
154003.000			22.057			-3.676
154105.000			22.056			-3.676
154204.000			22.056			-3.676
154305.000			22.056			-3.676
154404.000			22.055			-3.676
154504.000			22.054			-3.676
154605.000			22.054			-3.676
154704.000			22.054			-3.676
154804.000			22.053			-3.675
154904.000			22.052			-3.675
155004.000			22.051			-3.675
155104.000			22.052			-3.675
155205.000			22.051			-3.675
155304.000			22.052			-3.675
155404.000			22.052			-3.675
155505.000			22.051			-3.675
155603.000			22.050			-3.675
155704.000			22.049			-3.675
155805.000			22.048			-3.675
155904.000			22.048			-3.675
156004.000			22.047			-3.675
156105.000			22.047			-3.675
156204.000			22.047			-3.674
156304.000			22.047			-3.674
156405.000			22.046			-3.674
156503.000			22.046			-3.674
156604.000			22.045			-3.674
156705.000			22.046			-3.674
156804.000			22.045			-3.674
156904.000			22.044			-3.674
157005.000			22.043			-3.674
157104.000			22.043			-3.674
157204.000			22.042			-3.674
157305.000			22.041			-3.674
157403.000			22.040			-3.673
157505.000			22.040			-3.673
157604.000			22.040			-3.673
157704.000			22.038			-3.673
157805.000			22.039			-3.673
157904.000			22.038			-3.673
158004.000			22.038			-3.673
158105.000			22.037			-3.673
158204.000			22.038			-3.673
158303.000			22.038			-3.673
158405.000			22.037			-3.673
158504.000			22.036			-3.673
158604.000			22.035			-3.673
158705.000			22.035			-3.673
158804.000			22.036			-3.673
158904.000			22.035			-3.672
159004.000			22.034			-3.672
159104.000			22.033			-3.672
159203.000			22.033			-3.672
159305.000			22.033			-3.672
159404.000			22.033			-3.672
159504.000			22.032			-3.672
159605.000			22.033			-3.672
159704.000			22.033			-3.672
159804.000			22.031			-3.672
159904.000			22.031			-3.672
160004.000			22.030			-3.672
160103.000			22.030			-3.672
160205.000			22.030			-3.672
160304.000			22.029			-3.672
160404.000			22.030			-3.672
160505.000			22.028			-3.671
160604.000			22.027			-3.671
160705.000			22.027			-3.671
160803.000			22.027			-3.671
160904.000			22.026			-3.671
161005.000			22.026			-3.671
161104.000			22.026			-3.671
161204.000			22.026			-3.671
161305.000			22.025			-3.671
161404.000			22.024			-3.671
161503.000			22.024			-3.671
161605.000			22.024			-3.671
161704.000			22.023			-3.670
161804.000			22.022			-3.670
161905.000			22.022			-3.670
162004.000			22.022			-3.670
162104.000			22.022			-3.670
162205.000			22.022			-3.670
162304.000			22.023			-3.670
162403.000			22.023			-3.670
162505.000			22.022			-3.670
162604.000			22.021			-3.670
162704.000			22.020			-3.670
162805.000			22.021			-3.670
162904.000			22.020			-3.670
163004.000			22.021			-3.670
163104.000			22.021			-3.670
163204.000			22.020			-3.670
163304.000			22.020			-3.670
163405.000			22.021			-3.670
163504.000			22.021			-3.670
163604.000			22.020			-3.670
163705.000			22.019			-3.670
163804.000			22.019			-3.670
163905.000			22.019			-3.670
164003.000			22.019			-3.670
164104.000			22.018			-3.670
164205.000			22.017			-3.670
164304.000			22.017			-3.670
164404.000			22.017			-3.670
164505.000			22.017			-3.669
164604.000			22.016			-3.669
164703.000			22.016			-3.669
164805.000			22.016			-3.669
164903.000			22.015			-3.669
165004.000			22.014			-3.669
165105.000			22.014			-3.669
165204.000			22.014			-3.669
165304.000			22.014			-3.669
165405.000			22.014			-3.669
165504.000			22.014			-3.669
165603.000			22.014			-3.669
165705.000			22.013			-3.669
165804.000			22.012			-3.669
165904.000			22.011			-3.668
166005.000			22.012			-3.669
166104.000			22.010			-3.668
166204.000			22.010			-3.668
166304.000			22.010			-3.668
166404.000			22.010			-3.668
166503.000			22.009			-3.668
166605.000			22.008			-3.668
166704.000			22.008			-3.668
166804.000			22.007			-3.668
166905.000			22.007			-3.668
167004.000			22.006			-3.668
167105.000			22.006			-3.668
167203.000			22.005			-3.668
167304.000			22.005			-3.667
167405.000			22.004			-3.667
167504.000			22.004			-3.667
167604.000			22.003			-3.667
167705.000			22.002			-3.667
167804.000			22.002			-3.667
167904.000			22.002			-3.667
168005.000			22.002			-3.667
168103.000			22.001			-3.667
168204.000			22.001			-3.667
168305.000			21.999			-3.667
168404.000			22.000			-3.667
168504.000			22.000			-3.667
168605.000			21.999			-3.667
168704.000			21.998			-3.666
168803.000			21.997			-3.666
168905.000			21.997			-3.666
169003.000			21.996			-3.666
169104.000			21.996			-3.666
169205.000			21.995			-3.666
169304.000			21.995			-3.666
169404.000			21.994			-3.666
169505.000			21.995			-3.666
169604.000			21.993			-3.666
169704.000			21.993			-3.666
169805.000			21.993			-3.666
169903.000			21.991			-3.665
170004.000			21.991			-3.665
170105.000			21.992			-3.665
170204.000			21.992			-3.665
170305.000			21.991			-3.665
170404.000			21.990			-3.665
170504.000			21.989			-3.665
170605.000			21.989			-3.665
170704.000			21.989			-3.665
170803.000			21.989			-3.665
170905.000			21.988			-3.665
171003.000			21.988			-3.665
171104.000			21.987			-3.664
171205.000			21.986			-3.664
171304.000			21.986			-3.664
171404.000			21.986			-3.664
171505.000			21.985			-3.664
171604.000			21.984			-3.664
171703.000			21.985			-3.664
171805.000			21.985			-3.664
171903.000			21.986			-3.664
172004.000			21.984			-3.664
172105.000			21.983			-3.664
172204.000			21.983			-3.664
172304.000			21.983			-3.664
172405.000			21.983			-3.664
172504.000			21.983			-3.664
172604.000			21.983			-3.664
172705.000			21.983			-3.664
172803.000			21.982			-3.664
172904.000			21.982			-3.664
173005.000			21.981			-3.664
173104.000			21.981			-3.663
173204.000			21.982			-3.664
173304.000			21.980			-3.663
173404.000			21.980			-3.663
173505.000			21.981			-3.663
173604.000			21.980			-3.663
173703.000			21.980			-3.663
173805.000			21.979			-3.663
173904.000			21.979			-3.663
174004.000			21.979			-3.663
174105.000			21.976			-3.663
174204.000			21.977			-3.663
174304.000			21.976			-3.663
174405.000			21.975			-3.663
174504.000			21.975			-3.663
174603.000			21.975			-3.663
174705.000			21.975			-3.663
174804.000			21.973			-3.662
174904.000			21.972			-3.662
175005.000			21.972			-3.662
175104.000			21.972			-3.662
175204.000			21.972			-3.662
175305.000			21.972			-3.662
175404.000			21.971			-3.662
175503.000			21.970			-3.662
175605.000			21.971			-3.662
175704.000			21.971			-3.662
175804.000			21.970			-3.662
175905.000			21.968			-3.661
176004.000			21.968			-3.661
176104.000			21.968			-3.661
176205.000			21.967			-3.661
176304.000			21.968			-3.661
176403.000			21.968			-3.661
176505.000			21.968			-3.661
176603.000			21.968			-3.661
176705.000			21.966			-3.661
176804.000			21.966			-3.661
176904.000			21.967			-3.661
177005.000			21.966			-3.661
177104.000			21.965			-3.661
177204.000			21.965			-3.661
177305.000			21.965			-3.661
177404.000			21.964			-3.661
177503.000			21.963			-3.661
177605.000			21.963			-3.661
177704.000			21.963			-3.660
177804.000			21.962			-3.660
177905.000			21.962			-3.660
178004.000			21.961			-3.660
178104.000			21.961			-3.660
178205.000			21.961			-3.660
178304.000			21.960			-3.660
178403.000			21.959			-3.660
178505.000			21.959			-3.660
178604.000			21.959			-3.660
178704.000			21.959			-3.660
178805.000			21.958			-3.660
178904.000			21.957			-3.660
179004.000			21.956			-3.659
179105.000			21.957			-3.659
179204.000			21.956			-3.659
179303.000			21.957			-3.659
179405.000			21.956			-3.659
179503.000			21.955			-3.659
179604.000			21.955			-3.659
179705.000			21.956			-3.659
179804.000			21.956			-3.659
179905.000			21.954			-3.659
180004.000			21.953			-3.659
180104.000			21.953			-3.659
180205.000			21.953			-3.659
180304.000			21.952			-3.659
180403.000			21.952			-3.659
180505.000			21.952			-3.659
180604.000			21.953			-3.659
180704.000			21.952			-3.659
180805.000			21.951			-3.658
180904.000			21.951			-3.658
181004.000			21.951			-3.659
181105.000			21.952			-3.659
181204.000			21.951			-3.659
181303.000			21.950			-3.658
181405.000			21.949			-3.658
181504.000			21.948			-3.658
181604.000			21.948			-3.658
181705.000			21.948			-3.658
181804.000			21.949			-3.658
181904.000			21.948			-3.658
182004.000			21.948			-3.658
182104.000			21.947			-3.658
182203.000			21.948			-3.658
182305.000			21.947			-3.658
182404.000			21.947			-3.658
182504.000			21.947			-3.658
182605.000			21.947			-3.658
182704.000			21.946			-3.658
182804.000			21.945			-3.657
182904.000			21.945			-3.657
183004.000			21.944			-3.657
183104.000			21.944			-3.657
183204.000			21.943			-3.657
183304.000			21.943			-3.657
183405.000			21.944			-3.657
183504.000			21.942			-3.657
183604.000			21.941			-3.657
183705.000			21.941			-3.657
183804.000			21.942			-3.657
183904.000			21.942			-3.657
184004.000			21.941			-3.657
184104.000			21.940			-3.657
184204.000			21.940			-3.657
184305.000			21.939			-3.657
184404.000			21.938			-3.656
184504.000			21.939			-3.656
184605.000			21.939			-3.656
184704.000			21.939			-3.657
184804.000			21.938			-3.656
184904.000			21.938			-3.656
185004.000			21.937			-3.656
185104.000			21.938			-3.656
185205.000			21.937			-3.656
185304.000			21.937			-3.656
185404.000			21.936			-3.656
185505.000			21.935			-3.656
185604.000			21.935			-3.656
185704.000			21.934			-3.656
185804.000			21.933			-3.656
185904.000			21.932			-3.655
186004.000			21.933			-3.655
186104.000			21.933			-3.656
186204.000			21.934			-3.656
186305.000			21.933			-3.656
186404.000			21.931			-3.655
186504.000			21.931			-3.655
186605.000			21.930			-3.655
186703.000			21.930			-3.655
186804.000			21.930			-3.655
186905.000			21.930			-3.655
187004.000			21.929			-3.655
187104.000			21.929			-3.655
187205.000			21.928			-3.655
187304.000			21.929			-3.655
187404.000			21.928			-3.655
187505.000			21.927			-3.655
187603.000			21.927			-3.655
187704.000			21.927			-3.654
187805.000			21.926			-3.654
187904.000			21.925			-3.654
188004.000			21.925			-3.654
188105.000			21.926			-3.654
188204.000			21.925			-3.654
188304.000			21.925			-3.654
188405.000			21.924			-3.654
188503.000			21.923			-3.654
188604.000			21.923			-3.654
188704.000			21.923			-3.654
188804.000			21.922			-3.654
188904.000			21.923			-3.654
189005.000			21.923			-3.654
189104.000			21.923			-3.654
189204.000			21.922			-3.654
189305.000			21.921			-3.654
189403.000			21.921			-3.653
189505.000			21.921			-3.653
189603.000			21.921			-3.654
189704.000			21.920			-3.653
189805.000			21.919			-3.653
189904.000			21.920			-3.653
190004.000			21.920			-3.653
190105.000			21.918			-3.653
190204.000			21.918			-3.653
190304.000			21.918			-3.653
190405.000			21.918			-3.653
190503.000			21.916			-3.653
190604.000			21.916			-3.653
190705.000			21.917			-3.653
190804.000			21.917			-3.653
190904.000			21.916			-3.653
191005.000			21.915			-3.652
191104.000			21.914			-3.652
191204.000			21.914			-3.652
191305.000			21.915			-3.652
191403.000			21.916			-3.653
191504.000			21.914			-3.652
191605.000			21.914			-3.652
191704.000			21.915			-3.652
191804.000			21.915			-3.652
191905.000			21.915			-3.652
192004.000			21.914			-3.652
192104.000			21.912			-3.652
192205.000			21.912			-3.652
192303.000			21.912			-3.652
192404.000			21.912			-3.652
192505.000			21.911			-3.652
192604.000			21.913			-3.652
192705.000			21.912			-3.652
192804.000			21.911			-3.652
192904.000			21.911			-3.652
193005.000			21.913			-3.652
193104.000			21.912			-3.652
193203.000			21.912			-3.652
193305.000			21.912			-3.652
193404.000			21.911			-3.652
193504.000			21.912			-3.652
193605.000			21.911			-3.652
193704.000			21.912			-3.652
193804.000			21.912			-3.652
193905.000			21.912			-3.652
194004.000			21.912			-3.652
194103.000			21.911			-3.652
194205.000			21.911			-3.652
194304.000			21.910			-3.652
194404.000			21.911			-3.652
194505.000			21.910			-3.652
194604.000			21.911			-3.652
194704.000			21.911			-3.652
194804.000			21.910			-3.652
194904.000			21.910			-3.652
195003.000			21.910			-3.652
195105.000			21.909			-3.651
195204.000			21.908			-3.651
195304.000			21.908			-3.651
195405.000			21.908			-3.651
195504.000			21.906			-3.651
195604.000			21.906			-3.651
195704.000			21.906			-3.651
195804.000			21.906			-3.651
195904.000			21.905			-3.651
196004.000			21.906			-3.651
196104.000			21.905			-3.651
196205.000			21.905			-3.651
196304.000			21.904			-3.651
196404.000			21.904			-3.651
196505.000			21.904			-3.651
196604.000			21.902			-3.650
196704.000			21.902			-3.650
196804.000			21.901			-3.650
196904.000			21.901			-3.650
197004.000			21.901			-3.650
197105.000			21.902			-3.650
197204.000			21.901			-3.650
197304.000			21.900			-3.650
197405.000			21.899			-3.650
197504.000			21.901			-3.650
197604.000			21.900			-3.650
197704.000			21.899			-3.650
197804.000			21.898			-3.650
197904.000			21.898			-3.650
198005.000			21.897			-3.650
198104.000			21.897			-3.650
198204.000			21.896			-3.649
198305.000			21.895			-3.649
198404.000			21.896			-3.649
198504.000			21.896			-3.649
198604.000			21.896			-3.649
198704.000			21.895			-3.649
198803.000			21.893			-3.649
198905.000			21.893			-3.649
199004.000			21.894			-3.649
199105.000			21.894			-3.649
199204.000			21.893			-3.649
199304.000			21.893			-3.649
199405.000			21.892			-3.649
199504.000			21.892			-3.649
199604.000			21.892			-3.649
199704.000			21.892			-3.649
199804.000			21.892			-3.649
199903.000			21.892			-3.649
200005.000			21.892			-3.649
200104.000			21.891			-3.649
200204.000			21.890			-3.648
200305.000			21.890			-3.648
200404.000			21.891			-3.648
200504.000			21.890			-3.648
200604.000			21.889			-3.648
200704.000			21.889			-3.648
200803.000			21.889			-3.648
200905.000			21.889			-3.648
201004.000			21.889			-3.648
201104.000			21.888			-3.648
201205.000			21.888			-3.648
201304.000			21.888			-3.648
201404.000			21.888			-3.648
201504.000			21.888			-3.648
201604.000			21.887			-3.648
201703.000			21.887			-3.648
201805.000			21.887			-3.648
201904.000			21.886			-3.648
202004.000			21.886			-3.648
202105.000			21.886			-3.648
202204.000			21.886			-3.648
202305.000			21.886			-3.648
202403.000			21.884			-3.647
202504.000			21.884			-3.647
202605.000			21.883			-3.647
202704.000			21.882			-3.647
202804.000			21.883			-3.647
202905.000			21.883			-3.647
203004.000			21.882			-3.647
203104.000			21.882			-3.647
203205.000			21.882			-3.647
203303.000			21.882			-3.647
203404.000			21.881			-3.647
203505.000			21.881			-3.647
203604.000			21.880			-3.647
203704.000			21.881			-3.647
203805.000			21.881			-3.647
203904.000			21.880			-3.647
204003.000			21.879			-3.647
204105.000			21.879			-3.647
204203.000			21.878			-3.646
204304.000			21.879			-3.646
204405.000			21.878			-3.646
204504.000			21.878			-3.646
204604.000			21.878			-3.646
204705.000			21.878			-3.646
204804.000			21.877			-3.646
204903.000			21.877			-3.646
205005.000			21.877			-3.646
205103.000			21.877			-3.646
205204.000			21.876			-3.646
205305.000			21.875			-3.646
205404.000			21.875			-3.646
205505.000			21.875			-3.646
205604.000			21.874			-3.646
205704.000			21.874			-3.646
205804.000			21.874			-3.646
205904.000			21.875			-3.646
206003.000			21.873			-3.645
206105.000			21.873			-3.645
206204.000			21.873			-3.645
206304.000			21.873			-3.645
206405.000			21.872			-3.645
206504.000			21.873			-3.646
206604.000			21.873			-3.645
206704.000			21.872			-3.645
206804.000			21.872			-3.645
206903.000			21.870			-3.645
207005.000			21.870			-3.645
207104.000			21.870			-3.645
207204.000			21.870			-3.645
207305.000			21.870			-3.645
207404.000			21.869			-3.645
207504.000			21.868			-3.645
207604.000			21.870			-3.645
207704.000			21.869			-3.645
207804.000			21.868			-3.645
207905.000			21.868			-3.645
208004.000			21.867			-3.644
208104.000			21.867			-3.645
208205.000			21.866			-3.644
208304.000			21.867			-3.644
208404.000			21.867			-3.644
208503.000			21.866			-3.644
208604.000			21.864			-3.644
208705.000			21.865			-3.644
208804.000			21.864			-3.644
208904.000			21.864			-3.644
209005.000			21.864			-3.644
209104.000			21.864			-3.644
209204.000			21.864			-3.644
209305.000			21.864			-3.644
209403.000			21.862			-3.644
209504.000			21.862			-3.644
209604.000			21.861			-3.644
209704.000			21.861			-3.643
209804.000			21.862			-3.644
209905.000			21.861			-3.644
210004.000			21.861			-3.643
210104.000			21.861			-3.644
210205.000			21.861			-3.643
210303.000			21.860			-3.643
210404.000			21.860			-3.643
210505.000			21.858			-3.643
210604.000			21.858			-3.643
210704.000			21.858			-3.643
210805.000			21.858			-3.643
210904.000			21.857			-3.643
211004.000			21.857			-3.643
211105.000			21.856			-3.643
211203.000			21.855			-3.643
211304.000			21.856			-3.643
211405.000			21.856			-3.643
211504.000			21.855			-3.642
211604.000			21.854			-3.642
211704.000			21.854			-3.642
211804.000			21.853			-3.642
211905.000			21.854			-3.642
212004.000			21.853			-3.642
212103.000			21.853			-3.642
212205.000			21.853			-3.642
212304.000			21.853			-3.642
212404.000			21.852			-3.642
212505.000			21.850			-3.642
212604.000			21.851			-3.642
212704.000			21.850			-3.642
212804.000			21.850			-3.642
212904.000			21.850			-3.642
213003.000			21.849			-3.642
213105.000			21.849			-3.641
213204.000			21.848			-3.641
213304.000			21.847			-3.641
213405.000			21.847			-3.641
213504.000			21.846			-3.641
213604.000			21.846			-3.641
213704.000			21.847			-3.641
213804.000			21.847			-3.641
213903.000			21.846			-3.641
214005.000			21.845			-3.641
214104.000			21.845			-3.641
214204.000			21.845			-3.641
214305.000			21.845			-3.641
214404.000			21.844			-3.641
214504.000			21.844			-3.641
214604.000			21.843			-3.641
214704.000			21.842			-3.640
214804.000			21.841			-3.640
214904.000			21.841			-3.640
215004.000			21.841			-3.640
215105.000			21.841			-3.640
215204.000			21.842			-3.640
215304.000			21.841			-3.640
215405.000			21.840			-3.640
215503.000			21.840			-3.640
215604.000			21.839			-3.640
215705.000			21.840			-3.640
215804.000			21.839			-3.640
215904.000			21.838			-3.640
216005.000			21.839			-3.640
216104.000			21.838			-3.640
216204.000			21.837			-3.639
216305.000			21.837			-3.640
216403.000			21.837			-3.639
216504.000			21.837			-3.639
216605.000			21.837			-3.640
216704.000			21.837			-3.640
216804.000			21.836			-3.639
216905.000			21.835			-3.639
217004.000			21.835			-3.639
217104.000			21.834			-3.639
217205.000			21.834			-3.639
217303.000			21.834			-3.639
217404.000			21.833			-3.639
217505.000			21.832			-3.639
217604.000			21.832			-3.639
217704.000			21.832			-3.639
217805.000			21.832			-3.639
217904.000			21.832			-3.639
218004.000			21.832			-3.639
218105.000			21.831			-3.638
218203.000			21.831			-3.638
218305.000			21.829			-3.638
218404.000			21.830			-3.638
218504.000			21.830			-3.638
218605.000			21.830			-3.638
218704.000			21.829			-3.638
218804.000			21.829			-3.638
218905.000			21.828			-3.638
219004.000			21.828			-3.638
219103.000			21.828			-3.638
219205.000			21.827			-3.638
219304.000			21.827			-3.638
219404.000			21.826			-3.638
219505.000			21.826			-3.638
219604.000			21.826			-3.638
219704.000			21.825			-3.638
219805.000			21.825			-3.638
219904.000			21.825			-3.638
220003.000			21.825			-3.637
220105.000			21.824			-3.637
220204.000			21.824			-3.637
220304.000			21.824			-3.637
220405.000			21.824			-3.637
220504.000			21.824			-3.637
220604.000			21.824			-3.637
220704.000			21.824			-3.637
220804.000			21.823			-3.637
220904.000			21.823			-3.637
221005.000			21.822			-3.637
221104.000			21.822			-3.637
221204.000			21.822			-3.637
221305.000			21.820			-3.637
221404.000			21.821			-3.637
221505.000			21.821			-3.637
221603.000			21.821			-3.637
221704.000			21.821			-3.637
221805.000			21.821			-3.637
221904.000			21.820			-3.637
222004.000			21.818			-3.636
222105.000			21.818			-3.636
222204.000			21.819			-3.637
222303.000			21.819			-3.637
222405.000			21.818			-3.636
222504.000			21.818			-3.636
222604.000			21.817			-3.636
222705.000			21.817			-3.636
222804.000			21.817			-3.636
222904.000			21.817			-3.636
223005.000			21.816			-3.636
223104.000			21.815			-3.636
223203.000			21.816			-3.636
223305.000			21.816			-3.636
223404.000			21.814			-3.636
223504.000			21.814			-3.636
223605.000			21.814			-3.636
223704.000			21.815			-3.636
223804.000			21.814			-3.636
223904.000			21.814			-3.636
224004.000			21.813			-3.635
224103.000			21.813			-3.635
224205.000			21.814			-3.636
224304.000			21.814			-3.636
224404.000			21.813			-3.635
224505.000			21.812			-3.635
224604.000			21.812			-3.635
224705.000			21.811			-3.635
224803.000			21.811			-3.635
224904.000			21.811			-3.635
225005.000			21.811			-3.635
225104.000			21.810			-3.635
225204.000			21.809			-3.635
225305.000			21.809			-3.635
225404.000			21.809			-3.635
225504.000			21.809			-3.635
225605.000			21.808			-3.635
225703.000			21.808			-3.635
225804.000			21.809			-3.635
225905.000			21.808			-3.635
226004.000			21.808			-3.635
226104.000			21.807			-3.634
226205.000			21.806			-3.634
226304.000			21.807			-3.634
226404.000			21.806			-3.634
226505.000			21.807			-3.634
226603.000			21.807			-3.634
226704.000			21.807			-3.634
226805.000			21.806			-3.634
226904.000			21.805			-3.634
227004.000			21.805			-3.634
227105.000			21.804			-3.634
227204.000			21.804			-3.634
227304.000			21.804			-3.634
227405.000			21.805			-3.634
227503.000			21.804			-3.634
227604.000			21.805			-3.634
227705.000			21.805			-3.634
227804.000			21.804			-3.634
227905.000			21.804			-3.634
228004.000			21.805			-3.634
228104.000			21.804			-3.634
228204.000			21.803			-3.634
228304.000			21.803			-3.634
228403.000			21.804			-3.634
228505.000			21.803			-3.634
228604.000			21.803			-3.634
228704.000			21.804			-3.634
228805.000			21.802			-3.634
228904.000			21.801			-3.633
229004.000			21.800			-3.633
229104.000			21.801			-3.633
229204.000			21.801			-3.633
229303.000			21.800			-3.633
229405.000			21.800			-3.633
229504.000			21.801			-3.633
229604.000			21.801			-3.633
229705.000			21.801			-3.634
229804.000			21.801			-3.634
229904.000			21.801			-3.633
230004.000			21.801			-3.633
230104.000			21.801			-3.634
230204.000			21.802			-3.634
230305.000			21.802			-3.634
230404.000			21.800			-3.633
230504.000			21.799			-3.633
230605.000			21.800			-3.633
230703.000			21.800			-3.633
230804.000			21.800			-3.633
230903.000			21.800			-3.633
231004.000			21.799			-3.633
231105.000			21.799			-3.633
231204.000			21.798			-3.633
231304.000			21.798			-3.633
231405.000			21.797			-3.633
231504.000			21.797			-3.633
231604.000			21.797			-3.633
231705.000			21.797			-3.633
231803.000			21.797			-3.633
231904.000			21.796			-3.633
232005.000			21.794			-3.632
232104.000			21.794			-3.632
232204.000			21.795			-3.632
232305.000			21.795			-3.632
232404.000			21.795			-3.633
232504.000			21.794			-3.632
232605.000			21.794			-3.632
232703.000			21.795			-3.632
232804.000			21.794			-3.632
232905.000			21.794			-3.632
233004.000			21.794			-3.632
233104.000			21.793			-3.632
233205.000			21.793			-3.632
233304.000			21.794			-3.632
233403.000			21.794			-3.632
233505.000			21.792			-3.632
233603.000			21.794			-3.632
233704.000			21.793			-3.632
233805.000			21.792			-3.632
233904.000			21.790			-3.632
234004.000			21.790			-3.632
234104.000			21.791			-3.632
234204.000			21.790			-3.632
234305.000			21.788			-3.631
234404.000			21.789			-3.631
234503.000			21.788			-3.631
234605.000			21.788			-3.631
234704.000			21.787			-3.631
234804.000			21.788			-3.631
234905.000			21.788			-3.631
235004.000			21.788			-3.631
235104.000			21.786			-3.631
235205.000			21.785			-3.631
235304.000			21.785			-3.631
235403.000			21.785			-3.631
235505.000			21.786			-3.631
235604.000			21.786			-3.631
235704.000			21.785			-3.631
235805.000			21.786			-3.631
235904.000			21.785			-3.631
236004.000			21.784			-3.631
236105.000			21.785			-3.631
236204.000			21.785			-3.631
236303.000			21.784			-3.631
236405.000			21.785			-3.631
236504.000			21.785			-3.631
236604.000			21.784			-3.631
236705.000			21.783			-3.631
236804.000			21.783			-3.631
236904.000			21.784			-3.631
237005.000			21.784			-3.631
237104.000			21.784			-3.631
237203.000			21.783			-3.631
237305.000			21.783			-3.631
237404.000			21.783			-3.631
237505.000			21.783			-3.631
237604.000			21.782			-3.630
237704.000			21.781			-3.630
237805.000			21.782			-3.630
237904.000			21.782			-3.630
238004.000			21.781			-3.630
238104.000			21.781			-3.630
238204.000			21.780			-3.630
238304.000			21.779			-3.630
238405.000			21.779			-3.630
238504.000			21.779			-3.630
238604.000			21.779			-3.630
238705.000			21.777			-3.630
238804.000			21.778			-3.630
238904.000			21.777			-3.630
239004.000			21.776			-3.629
239104.000			21.775			-3.629
239203.000			21.775			-3.629
239305.000			21.776			-3.629
239404.000			21.775			-3.629
239504.000			21.774			-3.629
239605.000			21.773			-3.629
239704.000			21.773			-3.629
239804.000			21.774			-3.629
239904.000			21.774			-3.629
240004.000			21.773			-3.629
240103.000			21.772			-3.629
240205.000			21.772			-3.629
240304.000			21.771			-3.629
240404.000			21.771			-3.629
240505.000			21.770			-3.628
240604.000			21.769			-3.628
240705.000			21.770			-3.628
240803.000			21.769			-3.628
240904.000			21.769			-3.628
241005.000			21.769			-3.628
241104.000			21.768			-3.628
241204.000			21.768			-3.628
241305.000			21.768			-3.628
241404.000			21.768			-3.628
241504.000			21.768			-3.628
241605.000			21.766			-3.628
241703.000			21.767			-3.628
241804.000			21.767			-3.628
241905.000			21.767			-3.628
242004.000			21.765			-3.628
242104.000			21.764			-3.627
242205.000			21.764			-3.627
242304.000			21.765			-3.627
242404.000			21.764			-3.627
242505.000			21.763			-3.627
242603.000			21.763			-3.627
242704.000			21.763			-3.627
242805.000			21.764			-3.627
242904.000			21.763			-3.627
243004.000			21.761			-3.627
243105.000			21.761			-3.627
243204.000			21.762			-3.627
243304.000			21.761			-3.627
243405.000			21.761			-3.627
243503.000			21.761			-3.627
243604.000			21.760			-3.627
243705.000			21.760			-3.627
243804.000			21.761			-3.627
243905.000			21.759			-3.627
244004.000			21.760			-3.627
244104.000			21.760			-3.627
244205.000			21.760			-3.627
244304.000			21.759			-3.627
244403.000			21.759			-3.626
244505.000			21.758			-3.626
244604.000			21.759			-3.626
244704.000			21.759			-3.626
244805.000			21.758			-3.626
244904.000			21.757			-3.626
245004.000			21.757			-3.626
245105.000			21.757			-3.626
245204.000			21.757			-3.626
245303.000			21.756			-3.626
245405.000			21.757			-3.626
245504.000			21.757			-3.626
245604.000			21.757			-3.626
245705.000			21.756			-3.626
245804.000			21.754			-3.626
245904.000			21.754			-3.626
246005.000			21.756			-3.626
246104.000			21.755			-3.626
246203.000			21.753			-3.626
246305.000			21.754			-3.626
246404.000			21.753			-3.626
246504.000			21.753			-3.626
246605.000			21.753			-3.626
246704.000			21.753			-3.625
246804.000			21.753			-3.626
246904.000			21.752			-3.625
247004.000			21.752			-3.625
247104.000			21.752			-3.625
247204.000			21.751			-3.625
247304.000			21.752			-3.625
247405.000			21.751			-3.625
247504.000			21.751			-3.625
247604.000			21.750			-3.625
247705.000			21.750			-3.625
247804.000			21.750			-3.625
247904.000			21.749			-3.625
248004.000			21.749			-3.625
248104.000			21.748			-3.625
248204.000			21.748			-3.625
248305.000			21.748			-3.625
248404.000			21.747			-3.625
248504.000			21.748			-3.625
248605.000			21.749			-3.625
248704.000			21.749			-3.625
248804.000			21.748			-3.625
248904.000			21.747			-3.624
249004.000			21.746			-3.624
249104.000			21.746			-3.624
249205.000			21.746			-3.624
249304.000			21.746			-3.624
249404.000			21.746			-3.624
249505.000			21.746			-3.624
249604.000			21.746			-3.624
249704.000			21.745			-3.624
249804.000			21.744			-3.624
249904.000			21.744			-3.624
250003.000			21.744			-3.624
250105.000			21.743			-3.624
250204.000			21.743			-3.624
250305.000			21.743			-3.624
250404.000			21.743			-3.624
250504.000			21.743			-3.624
250605.000			21.743			-3.624
250703.000			21.744			-3.624
250804.000			21.742			-3.624
250905.000			21.741			-3.624
251004.000			21.741			-3.623
251104.000			21.741			-3.624
251205.000			21.740			-3.623
251304.000			21.741			-3.623
251404.000			21.742			-3.624
251505.000			21.740			-3.623
251603.000			21.738			-3.623
251704.000			21.738			-3.623
251805.000			21.740			-3.623
251904.000			21.739			-3.623
252004.000			21.738			-3.623
252105.000			21.739			-3.623
252204.000			21.738			-3.623
252304.000			21.738			-3.623
252405.000			21.738			-3.623
252503.000			21.736			-3.623
252604.000			21.736			-3.623
252705.000			21.737			-3.623
252804.000			21.737			-3.623
252904.000			21.736			-3.623
253005.000			21.735			-3.623
253104.000			21.735			-3.622
253204.000			21.735			-3.622
253305.000			21.735			-3.622
253403.000			21.734			-3.622
253505.000			21.735			-3.622
253604.000			21.735			-3.622
253704.000			21.734			-3.622
253805.000			21.733			-3.622
253904.000			21.734			-3.622
254004.000			21.733			-3.622
254104.000			21.734			-3.622
254204.000			21.733			-3.622
254303.000			21.733			-3.622
254405.000			21.733			-3.622
254504.000			21.732			-3.622
254604.000			21.732			-3.622
254705.000			21.731			-3.622
254804.000			21.732			-3.622
254904.000			21.732			-3.622
255004.000			21.731			-3.622
255104.000			21.730			-3.622
255203.000			21.730			-3.622
255305.000			21.730			-3.622
255404.000			21.731			-3.622
255504.000			21.730			-3.622
255605.000			21.729			-3.621
255704.000			21.729			-3.622
255804.000			21.728			-3.621
255904.000			21.728			-3.621
256004.000			21.728			-3.621
256104.000			21.728			-3.621
256205.000			21.728			-3.621
256304.000			21.727			-3.621
256404.000			21.727			-3.621
256505.000			21.726			-3.621
256604.000			21.727			-3.621
256705.000			21.727			-3.621
256803.000			21.727			-3.621
256904.000			21.725			-3.621
257005.000			21.726			-3.621
257104.000			21.725			-3.621
257204.000			21.724			-3.621
257305.000			21.725			-3.621
257404.000			21.726			-3.621
257504.000			21.725			-3.621
257605.000			21.725			-3.621
257703.000			21.724			-3.621
257804.000			21.724			-3.621
257905.000			21.725			-3.621
258004.000			21.725			-3.621
258104.000			21.725			-3.621
258205.000			21.724			-3.621
258304.000			21.724			-3.621
258404.000			21.724			-3.621
258505.000			21.725			-3.621
258603.000			21.726			-3.621
258704.000			21.725			-3.621
258805.000			21.725			-3.621
258904.000			21.725			-3.621
259004.000			21.724			-3.621
259105.000			21.723			-3.621
259204.000			21.723			-3.621
259304.000			21.724			-3.621
259405.000			21.723			-3.621
259503.000			21.723			-3.621
259604.000			21.724			-3.621
259705.000			21.723			-3.620
259804.000			21.723			-3.621
259905.000			21.722			-3.620
260004.000			21.722			-3.620
260104.000			21.722			-3.620
260205.000			21.722			-3.620
260304.000			21.721			-3.620
260403.000			21.721			-3.620
260505.000			21.720			-3.620
260604.000			21.721			-3.620
260704.000			21.721			-3.620
260805.000			21.719			-3.620
260904.000			21.719			-3.620
261004.000			21.719			-3.620
261105.000			21.718			-3.620
261204.000			21.718			-3.620
261303.000			21.718			-3.620
261405.000			21.717			-3.620
261504.000			21.717			-3.619
261604.000			21.717			-3.620
261705.000			21.717			-3.619
261804.000			21.717			-3.619
261904.000			21.717			-3.619
262005.000			21.715			-3.619
262104.000			21.715			-3.619
262203.000			21.715			-3.619
262305.000			21.714			-3.619
262404.000			21.714			-3.619
262504.000			21.714			-3.619
262605.000			21.714			-3.619
262704.000			21.714			-3.619
262804.000			21.714			-3.619
262903.000			21.715			-3.619
263004.000			21.714			-3.619
263105.000			21.714			-3.619
263204.000			21.714			-3.619
263304.000			21.714			-3.619
263405.000			21.715			-3.619
263504.000			21.715			-3.619
263604.000			21.714			-3.619
263705.000			21.715			-3.619
263803.000			21.714			-3.619
263904.000			21.714			-3.619
264005.000			21.714			-3.619
264104.000			21.712			-3.619
264204.000			21.713			-3.619
264305.000			21.713			-3.619
264404.000			21.712			-3.619
264503.000			21.713			-3.619
264605.000			21.713			-3.619
264704.000			21.712			-3.619
264804.000			21.712			-3.619
264905.000			21.712			-3.619
265004.000			21.710			-3.618
265104.000			21.711			-3.618
265205.000			21.712			-3.619
265304.000			21.713			-3.619
265403.000			21.712			-3.619
265505.000			21.711			-3.618
265604.000			21.709			-3.618
265704.000			21.709			-3.618
265805.000			21.710			-3.618
265904.000			21.711			-3.618
266004.000			21.710			-3.618
266104.000			21.709			-3.618
266204.000			21.708			-3.618
266304.000			21.708			-3.618
266404.000			21.708			-3.618
266504.000			21.707			-3.618
266605.000			21.707			-3.618
266704.000			21.707			-3.618
266804.000			21.707			-3.618
266905.000			21.707			-3.618
267004.000			21.705			-3.617
267104.000			21.705			-3.617
267204.000			21.705			-3.618
267304.000			21.704			-3.617
267404.000			21.704			-3.617
267505.000			21.703			-3.617
267604.000			21.703			-3.617
267704.000			21.703			-3.617
267805.000			21.701			-3.617
267903.000			21.701			-3.617
268004.000			21.701			-3.617
268104.000			21.701			-3.617
268204.000			21.701			-3.617
268304.000			21.701			-3.617
268405.000			21.700			-3.617
268504.000			21.700			-3.617
268604.000			21.699			-3.616
268705.000			21.698			-3.616
268803.000			21.698			-3.616
268904.000			21.698			-3.616
269004.000			21.698			-3.616
269104.000			21.698			-3.616
269204.000			21.698			-3.616
269304.000			21.697			-3.616
269404.000			21.697			-3.616
269505.000			21.696			-3.616
269604.000			21.695			-3.616
269704.000			21.696			-3.616
269805.000			21.696			-3.616
269903.000			21.696			-3.616
270004.000			21.695			-3.616
270105.000			21.695			-3.616
270204.000			21.696			-3.616
270304.000			21.695			-3.616
270405.000			21.695			-3.616
270504.000			21.694			-3.616
270604.000			21.693			-3.616
270705.000			21.692			-3.615
270803.000			21.692			-3.615
270904.000			21.693			-3.616
271005.000			21.693			-3.616
271104.000			21.693			-3.616
271204.000			21.691			-3.615
271305.000			21.692			-3.615
271404.000			21.691			-3.615
271504.000			21.692			-3.615
271605.000			21.692			-3.615
271703.000			21.691			-3.615
271804.000			21.691			-3.615
271905.000			21.691			-3.615
272004.000			21.691			-3.615
272104.000			21.691			-3.615
272205.000			21.691			-3.615
272304.000			21.690			-3.615
272404.000			21.690			-3.615
272505.000			21.689			-3.615
272603.000			21.689			-3.615
272705.000			21.689			-3.615
272804.000			21.689			-3.615
272904.000			21.688			-3.615
273005.000			21.688			-3.615
273104.000			21.687			-3.614
273204.000			21.687			-3.615
273305.000			21.688			-3.615
273404.000			21.688			-3.615
273503.000			21.687			-3.614
273605.000			21.686			-3.614
273704.000			21.686			-3.614
273804.000			21.685			-3.614
273905.000			21.685			-3.614
274004.000			21.686			-3.614
274104.000			21.685			-3.614
274205.000			21.684			-3.614
274304.000			21.684			-3.614
274403.000			21.683			-3.614
274505.000			21.683			-3.614
274604.000			21.684			-3.614
274704.000			21.684			-3.614
274805.000			21.684			-3.614
274904.000			21.683			-3.614
275004.000			21.684			-3.614
275105.000			21.684			-3.614
275204.000			21.683			-3.614
275303.000			21.682			-3.614
275405.000			21.682			-3.614
275504.000			21.682			-3.614
275604.000			21.682			-3.614
275705.000			21.682			-3.614
275804.000			21.682			-3.614
275905.000			21.681			-3.614
276004.000			21.681			-3.613
276104.000			21.680			-3.613
276204.000			21.680			-3.613
276304.000			21.680			-3.613
276404.000			21.680			-3.613
276505.000			21.678			-3.613
276604.000			21.678			-3.613
276704.000			21.678			-3.613
276805.000			21.678			-3.613
276904.000			21.679			-3.613
277004.000			21.679			-3.613
277104.000			21.678			-3.613
277204.000			21.678			-3.613
277303.000			21.677			-3.613
277405.000			21.676			-3.613
277504.000			21.676			-3.613
277604.000			21.676			-3.613
277705.000			21.677			-3.613
277804.000			21.677			-3.613
277904.000			21.676			-3.613
278004.000			21.676			-3.613
278104.000			21.676			-3.613
278203.000			21.676			-3.613
278305.000			21.675			-3.612
278404.000			21.674			-3.612
278504.000			21.674			-3.612
278605.000			21.674			-3.612
278704.000			21.674			-3.612
278804.000			21.674			-3.612
278904.000			21.673			-3.612
279004.000			21.673			-3.612
279104.000			21.673			-3.612
279204.000			21.673			-3.612
279304.000			21.672			-3.612
279405.000			21.672			-3.612
279504.000			21.672			-3.612
279604.000			21.671			-3.612
279705.000			21.672			-3.612
279804.000			21.672			-3.612
279904.000			21.671			-3.612
280004.000			21.671			-3.612
280104.000			21.671			-3.612
280204.000			21.670			-3.612
280305.000			21.670			-3.612
280404.000			21.669			-3.611
280504.000			21.668			-3.611
280605.000			21.669			-3.611
280704.000			21.668			-3.611
280804.000			21.669			-3.611
280904.000			21.669			-3.612
281004.000			21.669			-3.611
281104.000			21.669			-3.611
281205.000			21.668			-3.611
281304.000			21.669			-3.611
281404.000			21.669			-3.611
281505.000			21.669			-3.611
281604.000			21.669			-3.611
281704.000			21.667			-3.611
281804.000			21.667			-3.611
281904.000			21.667			-3.611
282004.000			21.666			-3.611
282104.000			21.666			-3.611
282204.000			21.666			-3.611
282305.000			21.665			-3.611
282404.000			21.665			-3.611
282504.000			21.666			-3.611
282605.000			21.666			-3.611
282703.000			21.665			-3.611
282804.000			21.665			-3.611
282905.000			21.665			-3.611
283004.000			21.664			-3.611
283104.000			21.663			-3.611
283205.000			21.664			-3.611
283304.000			21.664			-3.611
283404.000			21.663			-3.611
283505.000			21.662			-3.610
283603.000			21.663			-3.611
283704.000			21.663			-3.610
283805.000			21.662			-3.610
283904.000			21.662			-3.610
284004.000			21.662			-3.610
284105.000			21.662			-3.610
284204.000			21.662			-3.610
284304.000			21.663			-3.610
284405.000			21.662			-3.610
284503.000			21.661			-3.610
284604.000			21.660			-3.610
284705.000			21.660			-3.610
284804.000			21.660			-3.610
284904.000			21.660			-3.610
285005.000			21.660			-3.610
285104.000			21.659			-3.610
285204.000			21.659			-3.610
285305.000			21.658			-3.610
285403.000			21.658			-3.610
285505.000			21.657			-3.610
285604.000			21.657			-3.609
285704.000			21.657			-3.610
285805.000			21.657			-3.610
285904.000			21.657			-3.610
286004.000			21.657			-3.609
286105.000			21.657			-3.609
286204.000			21.657			-3.609
286303.000			21.657			-3.609
286405.000			21.657			-3.609
286504.000			21.657			-3.609
286604.000			21.656			-3.609
286705.000			21.656			-3.609
286804.000			21.656			-3.609
286904.000			21.655			-3.609
287005.000			21.655			-3.609
287104.000			21.655			-3.609
287203.000			21.655			-3.609
287305.000			21.655			-3.609
287403.000			21.653			-3.609
287504.000			21.653			-3.609
287605.000			21.653			-3.609
287704.000			21.654			-3.609
287804.000			21.653			-3.609
287905.000			21.653			-3.609
288004.000			21.654			-3.609
288103.000			21.652			-3.609
288205.000			21.652			-3.609
288303.000			21.652			-3.609
288404.000			21.652			-3.609
288505.000			21.651			-3.609
288604.000			21.651			-3.609
288705.000			21.650			-3.608
288804.000			21.651			-3.608
288904.000			21.650			-3.608
289005.000			21.651			-3.608
289104.000			21.650			-3.608
289203.000			21.650			-3.608
289305.000			21.651			-3.608
289404.000			21.650			-3.608
289504.000			21.649			-3.608
289605.000			21.649			-3.608
289704.000			21.649			-3.608
289804.000			21.649			-3.608
289905.000			21.648			-3.608
290004.000			21.649			-3.608
290103.000			21.649			-3.608
290205.000			21.647			-3.608
290304.000			21.647			-3.608
290404.000			21.648			-3.608
290505.000			21.647			-3.608
290604.000			21.647			-3.608
290704.000			21.646			-3.608
290805.000			21.645			-3.608
290904.000			21.646			-3.608
291003.000			21.645			-3.608
291105.000			21.646			-3.608
291204.000			21.647			-3.608
291304.000			21.646			-3.608
291405.000			21.646			-3.608
291504.000			21.645			-3.608
291604.000			21.644			-3.607
291704.000			21.644			-3.607
291804.000			21.643			-3.607
291904.000			21.643			-3.607
292004.000			21.643			-3.607
292104.000			21.643			-3.607
292205.000			21.643			-3.607
292304.000			21.642			-3.607
292404.000			21.642			-3.607
292505.000			21.643			-3.607
292604.000			21.642			-3.607
292704.000			21.641			-3.607
292804.000			21.641			-3.607
292904.000			21.641			-3.607
293004.000			21.641			-3.607
293105.000			21.642			-3.607
293204.000			21.640			-3.607
293304.000			21.641			-3.607
293405.000			21.641			-3.607
293503.000			21.640			-3.607
293604.000			21.640			-3.607
293704.000			21.639			-3.607
293804.000			21.640			-3.607
293904.000			21.639			-3.607
294005.000			21.640			-3.607
294104.000			21.639			-3.606
294204.000			21.639			-3.607
294305.000			21.639			-3.607
294404.000			21.639			-3.606
294504.000			21.639			-3.606
294604.000			21.639			-3.607
294704.000			21.638			-3.606
294804.000			21.638			-3.606
294904.000			21.639			-3.606
295004.000			21.639			-3.606
295105.000			21.640			-3.607
295204.000			21.640			-3.607
295304.000			21.639			-3.607
295405.000			21.639			-3.607
295503.000			21.640			-3.607
295604.000			21.641			-3.607
295705.000			21.641			-3.607
295804.000			21.640			-3.607
295904.000			21.639			-3.607
296005.000			21.639			-3.607
296104.000			21.639			-3.606
296204.000			21.640			-3.607
296305.000			21.640			-3.607
296403.000			21.640			-3.607
296504.000			21.640			-3.607
296605.000			21.639			-3.607
296704.000			21.639			-3.607
296804.000			21.638			-3.606
296905.000			21.639			-3.607
297004.000			21.638			-3.606
297104.000			21.638			-3.606
297205.000			21.638			-3.606
297303.000			21.637			-3.606
297404.000			21.638			-3.606
297504.000			21.637			-3.606
297604.000			21.637			-3.606
297704.000			21.636			-3.606
297805.000			21.636			-3.606
297904.000			21.636			-3.606
298004.000			21.635			-3.606
298105.000			21.634			-3.606
298203.000			21.634			-3.606
298305.000			21.634			-3.606
298403.000			21.634			-3.606
298504.000			21.634			-3.606
298605.000			21.633			-3.605
298704.000			21.633			-3.605
298804.000			21.632			-3.605
298905.000			21.633			-3.606
299004.000			21.633			-3.606
299103.000			21.632			-3.605
299205.000			21.631			-3.605
299303.000			21.631			-3.605
299404.000			21.631			-3.605
299505.000			21.632			-3.605
299604.000			21.632			-3.605
299704.000			21.631			-3.605
299805.000			21.631			-3.605
299904.000			21.629			-3.605
