# Acquired on 26/01/2024 10:50:56 
# SPIDER: Creep_-3mm_HM077x145x38AB-2
# CREEP MEASUREMENT

# time [ms]		force [N]		stiffness [N/mm]
0.000			10.557			-3.519
104.000			11.274			-3.758
205.000			11.493			-3.831
303.000			11.490			-3.830
404.000			11.462			-3.821
505.000			11.420			-3.807
604.000			11.403			-3.801
704.000			11.388			-3.796
804.000			11.376			-3.792
904.000			11.363			-3.788
1004.000			11.351			-3.784
1104.000			11.341			-3.780
1204.000			11.323			-3.774
1303.000			11.314			-3.771
1404.000			11.305			-3.768
1504.000			11.298			-3.766
1605.000			11.291			-3.764
1704.000			11.283			-3.761
1804.000			11.276			-3.759
1905.000			11.270			-3.757
2003.000			11.257			-3.752
2104.000			11.251			-3.750
2205.000			11.246			-3.749
2304.000			11.241			-3.747
2404.000			11.235			-3.745
2504.000			11.230			-3.743
2604.000			11.225			-3.742
2704.000			11.215			-3.738
2805.000			11.211			-3.737
2904.000			11.206			-3.735
3004.000			11.202			-3.734
3105.000			11.198			-3.733
3203.000			11.194			-3.731
3304.000			11.190			-3.730
3405.000			11.183			-3.728
3504.000			11.180			-3.727
3604.000			11.176			-3.725
3704.000			11.171			-3.724
3804.000			11.167			-3.722
3904.000			11.166			-3.722
4005.000			11.162			-3.721
4104.000			11.159			-3.720
4204.000			11.153			-3.718
4305.000			11.150			-3.717
4403.000			11.147			-3.716
4505.000			11.145			-3.715
4604.000			11.142			-3.714
4704.000			11.139			-3.713
4805.000			11.136			-3.712
4903.000			11.130			-3.710
5004.000			11.129			-3.710
5105.000			11.126			-3.709
5204.000			11.124			-3.708
5304.000			11.121			-3.707
5405.000			11.118			-3.706
5504.000			11.116			-3.705
5603.000			11.112			-3.704
5705.000			11.110			-3.703
5804.000			11.107			-3.702
5904.000			11.104			-3.701
6005.000			11.102			-3.701
6103.000			11.100			-3.700
6204.000			11.098			-3.699
6305.000			11.093			-3.698
6404.000			11.092			-3.697
6504.000			11.090			-3.697
6605.000			11.088			-3.696
6704.000			11.086			-3.695
6803.000			11.084			-3.695
6905.000			11.082			-3.694
7004.000			11.081			-3.694
7104.000			11.077			-3.692
7205.000			11.075			-3.692
7304.000			11.073			-3.691
7404.000			11.071			-3.690
7503.000			11.069			-3.690
7604.000			11.066			-3.689
7705.000			11.065			-3.688
7804.000			11.061			-3.687
7904.000			11.060			-3.687
8004.000			11.057			-3.686
8104.000			11.056			-3.685
8204.000			11.054			-3.685
8305.000			11.053			-3.684
8404.000			11.051			-3.684
8504.000			11.048			-3.683
8605.000			11.045			-3.682
8703.000			11.043			-3.681
8804.000			11.042			-3.681
8905.000			11.041			-3.680
9004.000			11.040			-3.680
9104.000			11.037			-3.679
9204.000			11.034			-3.678
9304.000			11.033			-3.678
9404.000			11.032			-3.677
9505.000			11.030			-3.677
9604.000			11.029			-3.676
9704.000			11.027			-3.676
9805.000			11.026			-3.675
9903.000			11.024			-3.675
10004.000			11.022			-3.674
10105.000			11.020			-3.673
10204.000			11.017			-3.672
10304.000			11.017			-3.672
10404.000			11.016			-3.672
10504.000			11.014			-3.671
10604.000			11.012			-3.671
10704.000			11.009			-3.670
10804.000			11.008			-3.669
10905.000			11.006			-3.669
11004.000			11.004			-3.668
11103.000			11.003			-3.668
11205.000			11.001			-3.667
11304.000			10.999			-3.666
11404.000			10.997			-3.666
11505.000			10.996			-3.665
11604.000			10.994			-3.665
11704.000			10.994			-3.665
11804.000			10.993			-3.664
11904.000			10.991			-3.664
12004.000			10.989			-3.663
12105.000			10.988			-3.663
12204.000			10.986			-3.662
12304.000			10.984			-3.661
12405.000			10.983			-3.661
12503.000			10.982			-3.661
12604.000			10.980			-3.660
12705.000			10.978			-3.659
12804.000			10.977			-3.659
12904.000			10.976			-3.659
13004.000			10.974			-3.658
13104.000			10.973			-3.658
13204.000			10.972			-3.657
13305.000			10.971			-3.657
13404.000			10.971			-3.657
13504.000			10.969			-3.656
13605.000			10.967			-3.656
13703.000			10.966			-3.655
13804.000			10.965			-3.655
13905.000			10.963			-3.654
14004.000			10.962			-3.654
14105.000			10.961			-3.654
14204.000			10.960			-3.653
14304.000			10.957			-3.652
14404.000			10.956			-3.652
14504.000			10.956			-3.652
14604.000			10.955			-3.652
14705.000			10.953			-3.651
14804.000			10.951			-3.650
14904.000			10.950			-3.650
15005.000			10.948			-3.649
15103.000			10.947			-3.649
15204.000			10.947			-3.649
15305.000			10.946			-3.649
15404.000			10.944			-3.648
15504.000			10.942			-3.647
15605.000			10.941			-3.647
15704.000			10.940			-3.647
15803.000			10.939			-3.646
15905.000			10.938			-3.646
16004.000			10.937			-3.646
16104.000			10.936			-3.645
16205.000			10.936			-3.645
16304.000			10.934			-3.645
16404.000			10.933			-3.644
16504.000			10.931			-3.644
16604.000			10.930			-3.643
16704.000			10.930			-3.643
16805.000			10.930			-3.643
16904.000			10.928			-3.643
17003.000			10.927			-3.642
17105.000			10.925			-3.642
17204.000			10.924			-3.641
17305.000			10.924			-3.641
17404.000			10.923			-3.641
17504.000			10.922			-3.641
17605.000			10.922			-3.641
17703.000			10.920			-3.640
17804.000			10.919			-3.640
17905.000			10.918			-3.639
18004.000			10.916			-3.639
18104.000			10.915			-3.638
18205.000			10.914			-3.638
18304.000			10.913			-3.638
18403.000			10.913			-3.638
18505.000			10.912			-3.637
18604.000			10.911			-3.637
18704.000			10.910			-3.637
18805.000			10.909			-3.636
18904.000			10.907			-3.636
19004.000			10.907			-3.636
19104.000			10.906			-3.635
19204.000			10.905			-3.635
19304.000			10.903			-3.634
19405.000			10.901			-3.634
19504.000			10.901			-3.634
19604.000			10.901			-3.634
19705.000			10.900			-3.633
19803.000			10.898			-3.633
19904.000			10.897			-3.632
20005.000			10.895			-3.632
20104.000			10.894			-3.631
20204.000			10.894			-3.631
20304.000			10.893			-3.631
20404.000			10.892			-3.631
20503.000			10.892			-3.631
20604.000			10.891			-3.630
20704.000			10.890			-3.630
20805.000			10.889			-3.630
20904.000			10.887			-3.629
21004.000			10.886			-3.629
21105.000			10.887			-3.629
21203.000			10.885			-3.628
21304.000			10.884			-3.628
21405.000			10.883			-3.628
21504.000			10.883			-3.628
21604.000			10.882			-3.627
21704.000			10.881			-3.627
21804.000			10.881			-3.627
21904.000			10.879			-3.626
22005.000			10.877			-3.626
22104.000			10.877			-3.626
22204.000			10.877			-3.626
22305.000			10.876			-3.625
22403.000			10.876			-3.625
22504.000			10.875			-3.625
22605.000			10.874			-3.625
22704.000			10.874			-3.625
22804.000			10.874			-3.625
22905.000			10.873			-3.624
23004.000			10.872			-3.624
23103.000			10.871			-3.624
23205.000			10.870			-3.623
23304.000			10.869			-3.623
23404.000			10.869			-3.623
23505.000			10.867			-3.622
23604.000			10.867			-3.622
23705.000			10.867			-3.622
23803.000			10.865			-3.622
23904.000			10.864			-3.621
24005.000			10.864			-3.621
24104.000			10.863			-3.621
24204.000			10.862			-3.621
24304.000			10.861			-3.620
24404.000			10.861			-3.620
24503.000			10.859			-3.620
24605.000			10.860			-3.620
24704.000			10.859			-3.620
24804.000			10.859			-3.620
24905.000			10.859			-3.620
25004.000			10.857			-3.619
25104.000			10.856			-3.619
25204.000			10.855			-3.618
25304.000			10.855			-3.618
25404.000			10.854			-3.618
25505.000			10.852			-3.617
25604.000			10.852			-3.617
25703.000			10.853			-3.618
25805.000			10.851			-3.617
25904.000			10.851			-3.617
26004.000			10.850			-3.617
26105.000			10.848			-3.616
26204.000			10.848			-3.616
26304.000			10.848			-3.616
26404.000			10.847			-3.616
26504.000			10.846			-3.615
26604.000			10.846			-3.615
26704.000			10.845			-3.615
26804.000			10.844			-3.615
26905.000			10.843			-3.614
27004.000			10.843			-3.614
27103.000			10.843			-3.614
27205.000			10.842			-3.614
27304.000			10.842			-3.614
27404.000			10.840			-3.613
27505.000			10.839			-3.613
27604.000			10.839			-3.613
27704.000			10.840			-3.613
27804.000			10.838			-3.613
27904.000			10.838			-3.613
28004.000			10.837			-3.612
28105.000			10.836			-3.612
28204.000			10.835			-3.612
28304.000			10.836			-3.612
28405.000			10.835			-3.612
28503.000			10.834			-3.611
28604.000			10.833			-3.611
28705.000			10.832			-3.611
28804.000			10.831			-3.610
28904.000			10.830			-3.610
29004.000			10.829			-3.610
29104.000			10.828			-3.609
29203.000			10.827			-3.609
29305.000			10.828			-3.609
29404.000			10.828			-3.609
29504.000			10.826			-3.609
29605.000			10.826			-3.609
29703.000			10.826			-3.609
29804.000			10.825			-3.608
29905.000			10.823			-3.608
30004.000			10.823			-3.608
30105.000			10.823			-3.608
30204.000			10.823			-3.608
30304.000			10.822			-3.607
30404.000			10.821			-3.607
30504.000			10.821			-3.607
30604.000			10.820			-3.607
30705.000			10.819			-3.606
30804.000			10.819			-3.606
30904.000			10.819			-3.606
31005.000			10.818			-3.606
31103.000			10.817			-3.606
31204.000			10.817			-3.606
31305.000			10.817			-3.606
31404.000			10.816			-3.605
31504.000			10.816			-3.605
31604.000			10.814			-3.605
31704.000			10.813			-3.604
31803.000			10.813			-3.604
31905.000			10.812			-3.604
32004.000			10.812			-3.604
32104.000			10.811			-3.604
32205.000			10.811			-3.604
32303.000			10.810			-3.603
32404.000			10.809			-3.603
32505.000			10.808			-3.603
32604.000			10.808			-3.603
32704.000			10.807			-3.602
32805.000			10.806			-3.602
32904.000			10.805			-3.602
33003.000			10.805			-3.602
33105.000			10.804			-3.601
33204.000			10.802			-3.601
33305.000			10.802			-3.601
33404.000			10.801			-3.600
33503.000			10.801			-3.600
33605.000			10.800			-3.600
33704.000			10.800			-3.600
33804.000			10.799			-3.600
33905.000			10.797			-3.599
34004.000			10.796			-3.599
34104.000			10.796			-3.599
34204.000			10.796			-3.599
34304.000			10.795			-3.598
34404.000			10.795			-3.598
34505.000			10.794			-3.598
34604.000			10.794			-3.598
34704.000			10.793			-3.598
34805.000			10.792			-3.597
34903.000			10.791			-3.597
35004.000			10.790			-3.597
35105.000			10.790			-3.597
35204.000			10.790			-3.597
35304.000			10.789			-3.596
35405.000			10.788			-3.596
35504.000			10.788			-3.596
35603.000			10.787			-3.596
35705.000			10.786			-3.595
35804.000			10.786			-3.595
35904.000			10.785			-3.595
36005.000			10.785			-3.595
36104.000			10.785			-3.595
36204.000			10.784			-3.595
36303.000			10.782			-3.594
36404.000			10.782			-3.594
36505.000			10.782			-3.594
36604.000			10.782			-3.594
36704.000			10.782			-3.594
36805.000			10.780			-3.593
36904.000			10.780			-3.593
37003.000			10.780			-3.593
37105.000			10.780			-3.593
37204.000			10.779			-3.593
37304.000			10.778			-3.593
37405.000			10.778			-3.593
37504.000			10.778			-3.593
37604.000			10.779			-3.593
37704.000			10.778			-3.593
37804.000			10.776			-3.592
37904.000			10.776			-3.592
38005.000			10.777			-3.592
38104.000			10.776			-3.592
38204.000			10.775			-3.592
38305.000			10.774			-3.591
38403.000			10.774			-3.591
38504.000			10.774			-3.591
38605.000			10.774			-3.591
38704.000			10.774			-3.591
38804.000			10.773			-3.591
38904.000			10.773			-3.591
39004.000			10.770			-3.590
39103.000			10.770			-3.590
39205.000			10.770			-3.590
39304.000			10.770			-3.590
39404.000			10.769			-3.590
39505.000			10.769			-3.590
39604.000			10.769			-3.590
39705.000			10.769			-3.590
39803.000			10.770			-3.590
39904.000			10.768			-3.589
40005.000			10.766			-3.589
40104.000			10.766			-3.589
40204.000			10.767			-3.589
40305.000			10.766			-3.589
40404.000			10.765			-3.588
40503.000			10.764			-3.588
40605.000			10.764			-3.588
40704.000			10.764			-3.588
40804.000			10.764			-3.588
40905.000			10.764			-3.588
41004.000			10.763			-3.588
41104.000			10.763			-3.588
41204.000			10.761			-3.587
41304.000			10.761			-3.587
41404.000			10.761			-3.587
41505.000			10.761			-3.587
41604.000			10.760			-3.587
41703.000			10.760			-3.587
41805.000			10.759			-3.586
41904.000			10.758			-3.586
42004.000			10.757			-3.586
42105.000			10.757			-3.586
42204.000			10.757			-3.586
42304.000			10.757			-3.586
42404.000			10.755			-3.585
42504.000			10.754			-3.585
42604.000			10.754			-3.585
42704.000			10.753			-3.584
42804.000			10.753			-3.584
42905.000			10.752			-3.584
43004.000			10.752			-3.584
43103.000			10.751			-3.584
43205.000			10.751			-3.584
43304.000			10.750			-3.583
43404.000			10.750			-3.583
43505.000			10.750			-3.583
43604.000			10.749			-3.583
43704.000			10.748			-3.583
43804.000			10.747			-3.582
43904.000			10.747			-3.582
44004.000			10.747			-3.582
44105.000			10.744			-3.581
44204.000			10.743			-3.581
44304.000			10.743			-3.581
44405.000			10.742			-3.581
44503.000			10.742			-3.581
44604.000			10.742			-3.581
44705.000			10.741			-3.580
44804.000			10.741			-3.580
44904.000			10.740			-3.580
45005.000			10.740			-3.580
45104.000			10.740			-3.580
45203.000			10.739			-3.580
45305.000			10.738			-3.579
45404.000			10.737			-3.579
45504.000			10.738			-3.579
45605.000			10.737			-3.579
45704.000			10.737			-3.579
45804.000			10.737			-3.579
45903.000			10.737			-3.579
46004.000			10.737			-3.579
46105.000			10.736			-3.579
46204.000			10.735			-3.578
46304.000			10.734			-3.578
46405.000			10.733			-3.578
46504.000			10.732			-3.577
46603.000			10.732			-3.577
46705.000			10.732			-3.577
46804.000			10.732			-3.577
46904.000			10.732			-3.577
47005.000			10.731			-3.577
47103.000			10.729			-3.576
47204.000			10.729			-3.576
47305.000			10.729			-3.576
47404.000			10.728			-3.576
47504.000			10.729			-3.576
47605.000			10.728			-3.576
47704.000			10.728			-3.576
47803.000			10.727			-3.576
47905.000			10.727			-3.576
48004.000			10.727			-3.576
48104.000			10.727			-3.576
48205.000			10.726			-3.575
48304.000			10.725			-3.575
48404.000			10.724			-3.575
48504.000			10.724			-3.575
48604.000			10.724			-3.575
48704.000			10.724			-3.575
48805.000			10.723			-3.574
48904.000			10.724			-3.575
49004.000			10.723			-3.574
49105.000			10.722			-3.574
49203.000			10.721			-3.574
49305.000			10.720			-3.573
49404.000			10.720			-3.573
49504.000			10.719			-3.573
49605.000			10.719			-3.573
49704.000			10.719			-3.573
49804.000			10.718			-3.573
49904.000			10.718			-3.573
50004.000			10.718			-3.573
50104.000			10.718			-3.573
50205.000			10.718			-3.573
50304.000			10.717			-3.572
50404.000			10.717			-3.572
50505.000			10.716			-3.572
50603.000			10.716			-3.572
50704.000			10.715			-3.572
50805.000			10.715			-3.572
50904.000			10.715			-3.572
51004.000			10.715			-3.572
51104.000			10.714			-3.571
51204.000			10.713			-3.571
51304.000			10.713			-3.571
51405.000			10.712			-3.571
51504.000			10.711			-3.570
51604.000			10.711			-3.570
51705.000			10.711			-3.570
51803.000			10.711			-3.570
51904.000			10.711			-3.570
52005.000			10.711			-3.570
52104.000			10.710			-3.570
52204.000			10.709			-3.570
52304.000			10.708			-3.569
52404.000			10.709			-3.570
52503.000			10.708			-3.569
52604.000			10.708			-3.569
52704.000			10.708			-3.569
52805.000			10.707			-3.569
52904.000			10.707			-3.569
53003.000			10.706			-3.569
53105.000			10.705			-3.568
53204.000			10.706			-3.569
53304.000			10.706			-3.569
53405.000			10.705			-3.568
53504.000			10.705			-3.568
53604.000			10.704			-3.568
53704.000			10.702			-3.567
53804.000			10.701			-3.567
53904.000			10.702			-3.567
54005.000			10.701			-3.567
54104.000			10.702			-3.567
54204.000			10.701			-3.567
54305.000			10.701			-3.567
54404.000			10.700			-3.567
54504.000			10.700			-3.567
54605.000			10.699			-3.566
54704.000			10.700			-3.567
54804.000			10.700			-3.567
54904.000			10.700			-3.567
55004.000			10.699			-3.566
55104.000			10.699			-3.566
55205.000			10.699			-3.566
55304.000			10.698			-3.566
55404.000			10.697			-3.566
55505.000			10.697			-3.566
55603.000			10.697			-3.566
55705.000			10.697			-3.566
55804.000			10.696			-3.565
55904.000			10.695			-3.565
56005.000			10.695			-3.565
56104.000			10.695			-3.565
56204.000			10.694			-3.565
56304.000			10.693			-3.564
56404.000			10.693			-3.564
56503.000			10.693			-3.564
56605.000			10.693			-3.564
56704.000			10.693			-3.564
56804.000			10.692			-3.564
56905.000			10.691			-3.564
57003.000			10.691			-3.564
57104.000			10.692			-3.564
57205.000			10.691			-3.564
57304.000			10.691			-3.564
57404.000			10.690			-3.563
57505.000			10.689			-3.563
57604.000			10.690			-3.563
57703.000			10.689			-3.563
57805.000			10.689			-3.563
57904.000			10.688			-3.563
58004.000			10.688			-3.563
58105.000			10.688			-3.563
58204.000			10.688			-3.563
58304.000			10.687			-3.562
58404.000			10.687			-3.562
58504.000			10.686			-3.562
58604.000			10.686			-3.562
58704.000			10.686			-3.562
58804.000			10.685			-3.562
58905.000			10.685			-3.562
59004.000			10.685			-3.562
59103.000			10.686			-3.562
59205.000			10.685			-3.562
59304.000			10.684			-3.561
59404.000			10.683			-3.561
59505.000			10.682			-3.561
59604.000			10.683			-3.561
59704.000			10.682			-3.561
59804.000			10.683			-3.561
59904.000			10.683			-3.561
60004.000			10.682			-3.561
60105.000			10.682			-3.561
60204.000			10.682			-3.561
60304.000			10.681			-3.560
60405.000			10.680			-3.560
60503.000			10.681			-3.560
60604.000			10.680			-3.560
60705.000			10.679			-3.560
60804.000			10.679			-3.560
60904.000			10.680			-3.560
61005.000			10.679			-3.560
61104.000			10.678			-3.559
61203.000			10.677			-3.559
61305.000			10.678			-3.559
61404.000			10.678			-3.559
61504.000			10.676			-3.559
61605.000			10.677			-3.559
61704.000			10.676			-3.559
61804.000			10.676			-3.559
61903.000			10.675			-3.558
62004.000			10.675			-3.558
62105.000			10.674			-3.558
62204.000			10.675			-3.558
62304.000			10.675			-3.558
62405.000			10.674			-3.558
62504.000			10.673			-3.558
62603.000			10.673			-3.558
62705.000			10.674			-3.558
62804.000			10.673			-3.558
62904.000			10.673			-3.558
63005.000			10.672			-3.557
63103.000			10.672			-3.557
63204.000			10.672			-3.557
63305.000			10.671			-3.557
63404.000			10.671			-3.557
63504.000			10.671			-3.557
63605.000			10.671			-3.557
63704.000			10.670			-3.557
63803.000			10.670			-3.557
63905.000			10.670			-3.557
64004.000			10.669			-3.556
64104.000			10.668			-3.556
64205.000			10.668			-3.556
64304.000			10.668			-3.556
64404.000			10.667			-3.556
64504.000			10.666			-3.555
64604.000			10.667			-3.556
64704.000			10.667			-3.556
64805.000			10.666			-3.555
64904.000			10.666			-3.555
65004.000			10.666			-3.555
65105.000			10.666			-3.555
65203.000			10.665			-3.555
65305.000			10.665			-3.555
65404.000			10.664			-3.555
65504.000			10.663			-3.554
65605.000			10.662			-3.554
65704.000			10.663			-3.554
65804.000			10.662			-3.554
65904.000			10.663			-3.554
66004.000			10.663			-3.554
66104.000			10.663			-3.554
66205.000			10.664			-3.555
66304.000			10.663			-3.554
66404.000			10.662			-3.554
66505.000			10.663			-3.554
66603.000			10.661			-3.554
66704.000			10.661			-3.554
66805.000			10.660			-3.553
66904.000			10.659			-3.553
67004.000			10.660			-3.553
67105.000			10.659			-3.553
67204.000			10.659			-3.553
67303.000			10.659			-3.553
67405.000			10.657			-3.552
67504.000			10.657			-3.552
67604.000			10.657			-3.552
67705.000			10.658			-3.553
67804.000			10.657			-3.552
67904.000			10.656			-3.552
68004.000			10.656			-3.552
68104.000			10.656			-3.552
68204.000			10.655			-3.552
68304.000			10.655			-3.552
68404.000			10.655			-3.552
68505.000			10.655			-3.552
68604.000			10.654			-3.551
68703.000			10.653			-3.551
68805.000			10.653			-3.551
68904.000			10.653			-3.551
69004.000			10.653			-3.551
69105.000			10.653			-3.551
69204.000			10.653			-3.551
69304.000			10.653			-3.551
69404.000			10.651			-3.550
69504.000			10.651			-3.550
69604.000			10.653			-3.551
69705.000			10.653			-3.551
69804.000			10.652			-3.551
69904.000			10.652			-3.551
70005.000			10.652			-3.551
70103.000			10.652			-3.551
70204.000			10.651			-3.550
70305.000			10.650			-3.550
70404.000			10.651			-3.550
70504.000			10.651			-3.550
70604.000			10.649			-3.550
70704.000			10.648			-3.549
70803.000			10.649			-3.550
70905.000			10.649			-3.550
71004.000			10.649			-3.550
71104.000			10.647			-3.549
71205.000			10.646			-3.549
71303.000			10.646			-3.549
71404.000			10.647			-3.549
71505.000			10.648			-3.549
71604.000			10.648			-3.549
71705.000			10.647			-3.549
71804.000			10.645			-3.548
71904.000			10.645			-3.548
72004.000			10.646			-3.549
72104.000			10.646			-3.549
72204.000			10.644			-3.548
72305.000			10.644			-3.548
72404.000			10.644			-3.548
72504.000			10.643			-3.548
72605.000			10.644			-3.548
72703.000			10.643			-3.548
72804.000			10.642			-3.547
72905.000			10.642			-3.547
73004.000			10.642			-3.547
73104.000			10.643			-3.548
73205.000			10.642			-3.547
73304.000			10.640			-3.547
73403.000			10.641			-3.547
73505.000			10.641			-3.547
73604.000			10.641			-3.547
73704.000			10.640			-3.547
73805.000			10.639			-3.546
73904.000			10.640			-3.547
74004.000			10.639			-3.546
74104.000			10.639			-3.546
74204.000			10.639			-3.546
74304.000			10.639			-3.546
74405.000			10.639			-3.546
74504.000			10.638			-3.546
74604.000			10.637			-3.546
74705.000			10.638			-3.546
74803.000			10.638			-3.546
74905.000			10.638			-3.546
75004.000			10.638			-3.546
75104.000			10.637			-3.546
75205.000			10.637			-3.546
75304.000			10.637			-3.546
75404.000			10.636			-3.545
75504.000			10.637			-3.546
75604.000			10.637			-3.546
75704.000			10.636			-3.545
75805.000			10.635			-3.545
75904.000			10.635			-3.545
76004.000			10.635			-3.545
76105.000			10.635			-3.545
76203.000			10.635			-3.545
76304.000			10.635			-3.545
76405.000			10.635			-3.545
76504.000			10.634			-3.545
76604.000			10.633			-3.544
76705.000			10.633			-3.544
76804.000			10.633			-3.544
76903.000			10.633			-3.544
77005.000			10.632			-3.544
77104.000			10.632			-3.544
77204.000			10.632			-3.544
77305.000			10.631			-3.544
77404.000			10.631			-3.544
77504.000			10.631			-3.544
77604.000			10.629			-3.543
77704.000			10.629			-3.543
77804.000			10.628			-3.543
77904.000			10.628			-3.543
78004.000			10.629			-3.543
78105.000			10.629			-3.543
78204.000			10.629			-3.543
78303.000			10.628			-3.543
78405.000			10.628			-3.543
78504.000			10.627			-3.542
78604.000			10.627			-3.542
78705.000			10.626			-3.542
78804.000			10.626			-3.542
78904.000			10.627			-3.542
79004.000			10.627			-3.542
79104.000			10.626			-3.542
79204.000			10.625			-3.542
79305.000			10.625			-3.542
79404.000			10.624			-3.541
79504.000			10.624			-3.541
79605.000			10.623			-3.541
79704.000			10.624			-3.541
79804.000			10.623			-3.541
79904.000			10.622			-3.541
80004.000			10.622			-3.541
80104.000			10.622			-3.541
80205.000			10.623			-3.541
80304.000			10.623			-3.541
80403.000			10.623			-3.541
80505.000			10.623			-3.541
80604.000			10.622			-3.541
80704.000			10.621			-3.540
80805.000			10.621			-3.540
80904.000			10.620			-3.540
81004.000			10.621			-3.540
81103.000			10.620			-3.540
81204.000			10.619			-3.540
81305.000			10.619			-3.540
81404.000			10.620			-3.540
81504.000			10.620			-3.540
81605.000			10.619			-3.540
81704.000			10.619			-3.540
81803.000			10.619			-3.540
81905.000			10.618			-3.539
82004.000			10.619			-3.540
82104.000			10.619			-3.540
82205.000			10.619			-3.540
82304.000			10.618			-3.539
82404.000			10.618			-3.539
82504.000			10.618			-3.539
82604.000			10.618			-3.539
82704.000			10.618			-3.539
82805.000			10.618			-3.539
82904.000			10.617			-3.539
83004.000			10.618			-3.539
83105.000			10.618			-3.539
83203.000			10.617			-3.539
83304.000			10.617			-3.539
83405.000			10.618			-3.539
83504.000			10.617			-3.539
83604.000			10.617			-3.539
83705.000			10.617			-3.539
83804.000			10.617			-3.539
83903.000			10.617			-3.539
84005.000			10.616			-3.539
84104.000			10.617			-3.539
84204.000			10.617			-3.539
84305.000			10.616			-3.539
84403.000			10.616			-3.539
84505.000			10.615			-3.538
84604.000			10.616			-3.539
84704.000			10.616			-3.539
84805.000			10.615			-3.538
84904.000			10.615			-3.538
85004.000			10.615			-3.538
85104.000			10.614			-3.538
85204.000			10.614			-3.538
85304.000			10.615			-3.538
85405.000			10.614			-3.538
85504.000			10.614			-3.538
85604.000			10.613			-3.538
85705.000			10.614			-3.538
85803.000			10.614			-3.538
85904.000			10.613			-3.538
86005.000			10.613			-3.538
86104.000			10.613			-3.538
86204.000			10.613			-3.538
86305.000			10.612			-3.537
86404.000			10.611			-3.537
86503.000			10.611			-3.537
86605.000			10.611			-3.537
86704.000			10.611			-3.537
86804.000			10.611			-3.537
86905.000			10.610			-3.537
87004.000			10.610			-3.537
87104.000			10.610			-3.537
87204.000			10.609			-3.536
87304.000			10.608			-3.536
87404.000			10.608			-3.536
87504.000			10.608			-3.536
87604.000			10.608			-3.536
87705.000			10.609			-3.536
87804.000			10.607			-3.536
87903.000			10.606			-3.535
88005.000			10.607			-3.536
88104.000			10.607			-3.536
88204.000			10.606			-3.535
88305.000			10.607			-3.536
88404.000			10.606			-3.535
88504.000			10.605			-3.535
88604.000			10.606			-3.535
88704.000			10.605			-3.535
88804.000			10.605			-3.535
88905.000			10.605			-3.535
89004.000			10.606			-3.535
89104.000			10.604			-3.535
89205.000			10.603			-3.534
89303.000			10.602			-3.534
89404.000			10.601			-3.534
89505.000			10.601			-3.534
89604.000			10.602			-3.534
89704.000			10.602			-3.534
89805.000			10.601			-3.534
89904.000			10.599			-3.533
90003.000			10.599			-3.533
90105.000			10.599			-3.533
90204.000			10.598			-3.533
90304.000			10.598			-3.533
90405.000			10.599			-3.533
90504.000			10.598			-3.533
90604.000			10.598			-3.533
90703.000			10.597			-3.532
90804.000			10.598			-3.533
90905.000			10.597			-3.532
91004.000			10.596			-3.532
91104.000			10.597			-3.532
91205.000			10.597			-3.532
91304.000			10.597			-3.532
91403.000			10.596			-3.532
91505.000			10.596			-3.532
91604.000			10.596			-3.532
91704.000			10.597			-3.532
91805.000			10.595			-3.532
91904.000			10.594			-3.531
92004.000			10.594			-3.531
92104.000			10.594			-3.531
92204.000			10.593			-3.531
92304.000			10.593			-3.531
92405.000			10.593			-3.531
92504.000			10.594			-3.531
92604.000			10.593			-3.531
92705.000			10.593			-3.531
92803.000			10.593			-3.531
92904.000			10.593			-3.531
93005.000			10.593			-3.531
93104.000			10.592			-3.531
93204.000			10.593			-3.531
93305.000			10.593			-3.531
93404.000			10.592			-3.531
93503.000			10.593			-3.531
93605.000			10.592			-3.531
93704.000			10.592			-3.531
93804.000			10.591			-3.530
93905.000			10.591			-3.530
94004.000			10.590			-3.530
94105.000			10.591			-3.530
94203.000			10.590			-3.530
94304.000			10.589			-3.530
94405.000			10.590			-3.530
94504.000			10.590			-3.530
94604.000			10.589			-3.530
94705.000			10.589			-3.530
94804.000			10.591			-3.530
94903.000			10.589			-3.530
95005.000			10.589			-3.530
95104.000			10.588			-3.529
95204.000			10.588			-3.529
95305.000			10.587			-3.529
95404.000			10.587			-3.529
95504.000			10.586			-3.529
95604.000			10.587			-3.529
95704.000			10.587			-3.529
95804.000			10.587			-3.529
95905.000			10.585			-3.528
96004.000			10.585			-3.528
96104.000			10.585			-3.528
96205.000			10.585			-3.528
96303.000			10.585			-3.528
96404.000			10.586			-3.529
96505.000			10.585			-3.528
96604.000			10.585			-3.528
96704.000			10.584			-3.528
96805.000			10.584			-3.528
96904.000			10.584			-3.528
97003.000			10.584			-3.528
97105.000			10.583			-3.528
97204.000			10.584			-3.528
97305.000			10.584			-3.528
97404.000			10.583			-3.528
97504.000			10.583			-3.528
97605.000			10.583			-3.528
97703.000			10.583			-3.528
97804.000			10.582			-3.527
97905.000			10.581			-3.527
98004.000			10.580			-3.527
98104.000			10.580			-3.527
98205.000			10.581			-3.527
98304.000			10.581			-3.527
98403.000			10.581			-3.527
98505.000			10.580			-3.527
98604.000			10.580			-3.527
98704.000			10.581			-3.527
98805.000			10.580			-3.527
98904.000			10.580			-3.527
99004.000			10.580			-3.527
99104.000			10.579			-3.526
99204.000			10.579			-3.526
99304.000			10.580			-3.527
99405.000			10.578			-3.526
99504.000			10.578			-3.526
99604.000			10.577			-3.526
99705.000			10.577			-3.526
99804.000			10.577			-3.526
99904.000			10.577			-3.526
100004.000			10.577			-3.526
100104.000			10.578			-3.526
100204.000			10.576			-3.525
100304.000			10.576			-3.525
100404.000			10.577			-3.526
100505.000			10.577			-3.526
100604.000			10.578			-3.526
100703.000			10.577			-3.526
100805.000			10.576			-3.525
100904.000			10.577			-3.526
101004.000			10.575			-3.525
101105.000			10.574			-3.525
101204.000			10.574			-3.525
101304.000			10.575			-3.525
101404.000			10.575			-3.525
101504.000			10.574			-3.525
101604.000			10.574			-3.525
101705.000			10.574			-3.525
101804.000			10.574			-3.525
101904.000			10.574			-3.525
102005.000			10.574			-3.525
102103.000			10.573			-3.524
102204.000			10.574			-3.525
102305.000			10.573			-3.524
102404.000			10.572			-3.524
102504.000			10.572			-3.524
102605.000			10.572			-3.524
102704.000			10.572			-3.524
102803.000			10.572			-3.524
102905.000			10.572			-3.524
103004.000			10.571			-3.524
103104.000			10.571			-3.524
103205.000			10.571			-3.524
103304.000			10.571			-3.524
103404.000			10.571			-3.524
103503.000			10.570			-3.523
103604.000			10.570			-3.523
103705.000			10.571			-3.524
103804.000			10.568			-3.523
103904.000			10.570			-3.523
104005.000			10.570			-3.523
104104.000			10.570			-3.523
104203.000			10.569			-3.523
104305.000			10.569			-3.523
104404.000			10.569			-3.523
104504.000			10.568			-3.523
104605.000			10.569			-3.523
104704.000			10.568			-3.523
104804.000			10.568			-3.523
104904.000			10.567			-3.522
105004.000			10.567			-3.522
105104.000			10.567			-3.522
105205.000			10.567			-3.522
105304.000			10.567			-3.522
105404.000			10.567			-3.522
105505.000			10.566			-3.522
105603.000			10.566			-3.522
105704.000			10.566			-3.522
105805.000			10.566			-3.522
105904.000			10.566			-3.522
106004.000			10.565			-3.522
106105.000			10.566			-3.522
106204.000			10.565			-3.522
106303.000			10.565			-3.522
106405.000			10.565			-3.522
106504.000			10.564			-3.521
106604.000			10.564			-3.521
106705.000			10.563			-3.521
106804.000			10.564			-3.521
106905.000			10.564			-3.521
107004.000			10.563			-3.521
107104.000			10.563			-3.521
107204.000			10.563			-3.521
107304.000			10.562			-3.521
107404.000			10.563			-3.521
107505.000			10.562			-3.521
107604.000			10.562			-3.521
107704.000			10.562			-3.521
107805.000			10.562			-3.521
107903.000			10.562			-3.521
108004.000			10.561			-3.520
108105.000			10.561			-3.520
108204.000			10.561			-3.520
108304.000			10.561			-3.520
108405.000			10.561			-3.520
108504.000			10.560			-3.520
108603.000			10.560			-3.520
108705.000			10.561			-3.520
108804.000			10.560			-3.520
108904.000			10.561			-3.520
109005.000			10.561			-3.520
109104.000			10.560			-3.520
109204.000			10.560			-3.520
109304.000			10.559			-3.520
109404.000			10.558			-3.519
109504.000			10.558			-3.519
109605.000			10.559			-3.520
109704.000			10.559			-3.520
109804.000			10.559			-3.520
109905.000			10.559			-3.520
110003.000			10.557			-3.519
110105.000			10.557			-3.519
110204.000			10.557			-3.519
110304.000			10.557			-3.519
110405.000			10.557			-3.519
110504.000			10.557			-3.519
110604.000			10.557			-3.519
110704.000			10.556			-3.519
110804.000			10.556			-3.519
110904.000			10.555			-3.518
111005.000			10.556			-3.519
111104.000			10.557			-3.519
111204.000			10.555			-3.518
111305.000			10.555			-3.518
111403.000			10.555			-3.518
111504.000			10.555			-3.518
111605.000			10.554			-3.518
111704.000			10.554			-3.518
111804.000			10.555			-3.518
111905.000			10.554			-3.518
112004.000			10.554			-3.518
112103.000			10.554			-3.518
112205.000			10.553			-3.518
112304.000			10.553			-3.518
112404.000			10.553			-3.518
112505.000			10.553			-3.518
112604.000			10.552			-3.517
112704.000			10.552			-3.517
112804.000			10.552			-3.517
112904.000			10.552			-3.517
113004.000			10.553			-3.518
113104.000			10.552			-3.517
113204.000			10.552			-3.517
113305.000			10.552			-3.517
113404.000			10.552			-3.517
113503.000			10.552			-3.517
113605.000			10.551			-3.517
113704.000			10.551			-3.517
113804.000			10.551			-3.517
113905.000			10.551			-3.517
114004.000			10.550			-3.517
114104.000			10.550			-3.517
114204.000			10.551			-3.517
114304.000			10.550			-3.517
114404.000			10.550			-3.517
114505.000			10.550			-3.517
114604.000			10.549			-3.516
114704.000			10.549			-3.516
114805.000			10.549			-3.516
114903.000			10.549			-3.516
115004.000			10.548			-3.516
115104.000			10.547			-3.516
115204.000			10.547			-3.516
115304.000			10.548			-3.516
115405.000			10.549			-3.516
115504.000			10.548			-3.516
115604.000			10.548			-3.516
115705.000			10.548			-3.516
115803.000			10.547			-3.516
115904.000			10.547			-3.516
116005.000			10.547			-3.516
116104.000			10.547			-3.516
116204.000			10.547			-3.516
116304.000			10.546			-3.515
116404.000			10.546			-3.515
116503.000			10.546			-3.515
116604.000			10.546			-3.515
116704.000			10.546			-3.515
116805.000			10.545			-3.515
116904.000			10.544			-3.515
117004.000			10.544			-3.515
117105.000			10.544			-3.515
117203.000			10.543			-3.514
117304.000			10.544			-3.515
117405.000			10.545			-3.515
117504.000			10.543			-3.514
117604.000			10.542			-3.514
117705.000			10.542			-3.514
117804.000			10.542			-3.514
117903.000			10.542			-3.514
118005.000			10.543			-3.514
118104.000			10.542			-3.514
118204.000			10.542			-3.514
118305.000			10.541			-3.514
118404.000			10.542			-3.514
118504.000			10.542			-3.514
118604.000			10.541			-3.514
118704.000			10.541			-3.514
118804.000			10.542			-3.514
118905.000			10.542			-3.514
119004.000			10.541			-3.514
119104.000			10.540			-3.513
119205.000			10.539			-3.513
119303.000			10.540			-3.513
119404.000			10.539			-3.513
119505.000			10.540			-3.513
119604.000			10.540			-3.513
119705.000			10.541			-3.514
119804.000			10.541			-3.514
119904.000			10.541			-3.514
120004.000			10.540			-3.513
120104.000			10.542			-3.514
120204.000			10.541			-3.514
120305.000			10.540			-3.513
120404.000			10.539			-3.513
120504.000			10.539			-3.513
120605.000			10.539			-3.513
120703.000			10.539			-3.513
120804.000			10.538			-3.513
120905.000			10.538			-3.513
121004.000			10.539			-3.513
121104.000			10.538			-3.513
121205.000			10.538			-3.513
121304.000			10.538			-3.513
121403.000			10.538			-3.513
121505.000			10.538			-3.513
121604.000			10.539			-3.513
121704.000			10.537			-3.512
121805.000			10.538			-3.513
121904.000			10.538			-3.513
122004.000			10.537			-3.512
122104.000			10.537			-3.512
122204.000			10.537			-3.512
122303.000			10.537			-3.512
122405.000			10.535			-3.512
122504.000			10.535			-3.512
122604.000			10.536			-3.512
122705.000			10.536			-3.512
122803.000			10.535			-3.512
122905.000			10.536			-3.512
123004.000			10.535			-3.512
123104.000			10.534			-3.511
123205.000			10.533			-3.511
123304.000			10.533			-3.511
123404.000			10.534			-3.511
123504.000			10.533			-3.511
123604.000			10.533			-3.511
123704.000			10.533			-3.511
123805.000			10.534			-3.511
123904.000			10.533			-3.511
124004.000			10.532			-3.511
124105.000			10.532			-3.511
124203.000			10.533			-3.511
124304.000			10.533			-3.511
124405.000			10.531			-3.510
124504.000			10.531			-3.510
124604.000			10.532			-3.511
124705.000			10.532			-3.511
124804.000			10.531			-3.510
124903.000			10.531			-3.510
125005.000			10.531			-3.510
125104.000			10.531			-3.510
125204.000			10.531			-3.510
125305.000			10.530			-3.510
125404.000			10.530			-3.510
125504.000			10.529			-3.510
125605.000			10.530			-3.510
125704.000			10.529			-3.510
125803.000			10.528			-3.509
125905.000			10.529			-3.510
126004.000			10.529			-3.510
126105.000			10.529			-3.510
126204.000			10.529			-3.510
126304.000			10.528			-3.509
126405.000			10.528			-3.509
126503.000			10.528			-3.509
126604.000			10.527			-3.509
126705.000			10.527			-3.509
126804.000			10.528			-3.509
126904.000			10.528			-3.509
127005.000			10.527			-3.509
127104.000			10.527			-3.509
127203.000			10.526			-3.509
127305.000			10.526			-3.509
127404.000			10.526			-3.509
127504.000			10.526			-3.509
127605.000			10.526			-3.509
127704.000			10.526			-3.509
127804.000			10.525			-3.508
127904.000			10.525			-3.508
128004.000			10.526			-3.509
128104.000			10.526			-3.509
128205.000			10.526			-3.509
128304.000			10.525			-3.508
128404.000			10.525			-3.508
128505.000			10.526			-3.509
128603.000			10.525			-3.508
128704.000			10.524			-3.508
128805.000			10.523			-3.508
128904.000			10.523			-3.508
129004.000			10.524			-3.508
129104.000			10.523			-3.508
129204.000			10.524			-3.508
129303.000			10.523			-3.508
129404.000			10.523			-3.508
129504.000			10.522			-3.507
129605.000			10.522			-3.507
129704.000			10.522			-3.507
129804.000			10.521			-3.507
129905.000			10.522			-3.507
130003.000			10.523			-3.508
130104.000			10.522			-3.507
130205.000			10.522			-3.507
130304.000			10.522			-3.507
130404.000			10.522			-3.507
130505.000			10.522			-3.507
130604.000			10.520			-3.507
130703.000			10.521			-3.507
130805.000			10.520			-3.507
130904.000			10.520			-3.507
131004.000			10.520			-3.507
131105.000			10.520			-3.507
131204.000			10.520			-3.507
131304.000			10.519			-3.506
131404.000			10.520			-3.507
131504.000			10.519			-3.506
131604.000			10.518			-3.506
131705.000			10.519			-3.506
131804.000			10.519			-3.506
131904.000			10.518			-3.506
132005.000			10.519			-3.506
132104.000			10.519			-3.506
132204.000			10.518			-3.506
132303.000			10.518			-3.506
132404.000			10.517			-3.506
132505.000			10.517			-3.506
132604.000			10.517			-3.506
132704.000			10.517			-3.506
132805.000			10.517			-3.506
132904.000			10.517			-3.506
133003.000			10.517			-3.506
133105.000			10.517			-3.506
133204.000			10.516			-3.505
133304.000			10.517			-3.506
133405.000			10.516			-3.505
133504.000			10.516			-3.505
133604.000			10.515			-3.505
133705.000			10.515			-3.505
133804.000			10.515			-3.505
133903.000			10.515			-3.505
134005.000			10.516			-3.505
134104.000			10.515			-3.505
134204.000			10.515			-3.505
134305.000			10.515			-3.505
134404.000			10.515			-3.505
134504.000			10.514			-3.505
134604.000			10.514			-3.505
134704.000			10.514			-3.505
134803.000			10.514			-3.505
134905.000			10.514			-3.505
135004.000			10.513			-3.504
135104.000			10.514			-3.505
135205.000			10.514			-3.505
135304.000			10.514			-3.505
135404.000			10.513			-3.504
135503.000			10.513			-3.504
135604.000			10.513			-3.504
135705.000			10.513			-3.504
135804.000			10.512			-3.504
135904.000			10.512			-3.504
136005.000			10.512			-3.504
136104.000			10.510			-3.503
136204.000			10.511			-3.504
136305.000			10.512			-3.504
136403.000			10.511			-3.504
136504.000			10.511			-3.504
136605.000			10.510			-3.503
136704.000			10.509			-3.503
136804.000			10.510			-3.503
136905.000			10.511			-3.504
137004.000			10.511			-3.504
137103.000			10.510			-3.503
137205.000			10.509			-3.503
137304.000			10.510			-3.503
137404.000			10.510			-3.503
137505.000			10.511			-3.504
137604.000			10.511			-3.504
137704.000			10.509			-3.503
137805.000			10.509			-3.503
137904.000			10.509			-3.503
138003.000			10.510			-3.503
138105.000			10.509			-3.503
138204.000			10.509			-3.503
138304.000			10.510			-3.503
138405.000			10.510			-3.503
138504.000			10.509			-3.503
138604.000			10.509			-3.503
138704.000			10.508			-3.503
138804.000			10.507			-3.502
138903.000			10.507			-3.502
139004.000			10.506			-3.502
139104.000			10.506			-3.502
139205.000			10.508			-3.503
139304.000			10.508			-3.503
139404.000			10.508			-3.503
139505.000			10.508			-3.503
139603.000			10.507			-3.502
139704.000			10.506			-3.502
139804.000			10.506			-3.502
139904.000			10.505			-3.502
140004.000			10.505			-3.502
140105.000			10.506			-3.502
140204.000			10.505			-3.502
140304.000			10.505			-3.502
140405.000			10.505			-3.502
140503.000			10.505			-3.502
140604.000			10.504			-3.501
140705.000			10.504			-3.501
140804.000			10.505			-3.502
140904.000			10.505			-3.502
141005.000			10.504			-3.501
141104.000			10.504			-3.501
141204.000			10.505			-3.502
141305.000			10.505			-3.502
141403.000			10.505			-3.502
141504.000			10.504			-3.501
141605.000			10.503			-3.501
141704.000			10.503			-3.501
141804.000			10.502			-3.501
141904.000			10.503			-3.501
142004.000			10.504			-3.501
142103.000			10.503			-3.501
142204.000			10.503			-3.501
142304.000			10.503			-3.501
142405.000			10.504			-3.501
142504.000			10.503			-3.501
142604.000			10.501			-3.500
142705.000			10.502			-3.501
142803.000			10.503			-3.501
142904.000			10.502			-3.501
143004.000			10.501			-3.500
143104.000			10.503			-3.501
143204.000			10.502			-3.501
143305.000			10.501			-3.500
143404.000			10.501			-3.500
143504.000			10.501			-3.500
143605.000			10.501			-3.500
143703.000			10.501			-3.500
143804.000			10.501			-3.500
143905.000			10.500			-3.500
144004.000			10.500			-3.500
144104.000			10.500			-3.500
144205.000			10.499			-3.500
144304.000			10.500			-3.500
144403.000			10.500			-3.500
144505.000			10.499			-3.500
144603.000			10.499			-3.500
144704.000			10.500			-3.500
144805.000			10.500			-3.500
144904.000			10.500			-3.500
145004.000			10.499			-3.500
145104.000			10.498			-3.499
145204.000			10.498			-3.499
145303.000			10.499			-3.500
145404.000			10.498			-3.499
145503.000			10.499			-3.500
145605.000			10.497			-3.499
145704.000			10.497			-3.499
145804.000			10.497			-3.499
145905.000			10.497			-3.499
146004.000			10.497			-3.499
146104.000			10.497			-3.499
146204.000			10.497			-3.499
146304.000			10.497			-3.499
146403.000			10.496			-3.499
146505.000			10.495			-3.498
146604.000			10.496			-3.499
146704.000			10.497			-3.499
146805.000			10.496			-3.499
146904.000			10.495			-3.498
147004.000			10.495			-3.498
147104.000			10.496			-3.499
147204.000			10.496			-3.499
147303.000			10.495			-3.498
147405.000			10.495			-3.498
147504.000			10.495			-3.498
147604.000			10.495			-3.498
147705.000			10.495			-3.498
147804.000			10.495			-3.498
147904.000			10.494			-3.498
148004.000			10.494			-3.498
148104.000			10.494			-3.498
148204.000			10.494			-3.498
148304.000			10.494			-3.498
148404.000			10.493			-3.498
148505.000			10.494			-3.498
148604.000			10.494			-3.498
148704.000			10.493			-3.498
148805.000			10.494			-3.498
148903.000			10.493			-3.498
149004.000			10.493			-3.498
149105.000			10.493			-3.498
149204.000			10.493			-3.498
149304.000			10.494			-3.498
149405.000			10.493			-3.498
149504.000			10.492			-3.497
149604.000			10.493			-3.498
149705.000			10.492			-3.497
149803.000			10.492			-3.497
149904.000			10.492			-3.497
150005.000			10.491			-3.497
150104.000			10.491			-3.497
150204.000			10.491			-3.497
150305.000			10.491			-3.497
150404.000			10.491			-3.497
150504.000			10.490			-3.497
150605.000			10.490			-3.497
150703.000			10.491			-3.497
150804.000			10.490			-3.497
150905.000			10.490			-3.497
151004.000			10.490			-3.497
151104.000			10.489			-3.496
151205.000			10.490			-3.497
151304.000			10.490			-3.497
151404.000			10.490			-3.497
151505.000			10.489			-3.496
151603.000			10.489			-3.496
151705.000			10.489			-3.496
151804.000			10.489			-3.496
151904.000			10.488			-3.496
152005.000			10.488			-3.496
152104.000			10.488			-3.496
152204.000			10.488			-3.496
152305.000			10.488			-3.496
152404.000			10.488			-3.496
152503.000			10.488			-3.496
152605.000			10.488			-3.496
152704.000			10.488			-3.496
152804.000			10.487			-3.496
152905.000			10.487			-3.496
153004.000			10.487			-3.496
153104.000			10.487			-3.496
153205.000			10.487			-3.496
153304.000			10.487			-3.496
153403.000			10.486			-3.495
153505.000			10.487			-3.496
153604.000			10.487			-3.496
153704.000			10.487			-3.496
153805.000			10.487			-3.496
153904.000			10.486			-3.495
154004.000			10.487			-3.496
154105.000			10.486			-3.495
154204.000			10.486			-3.495
154303.000			10.485			-3.495
154405.000			10.485			-3.495
154504.000			10.485			-3.495
154604.000			10.485			-3.495
154705.000			10.485			-3.495
154804.000			10.485			-3.495
154905.000			10.485			-3.495
155004.000			10.484			-3.495
155104.000			10.483			-3.494
155204.000			10.485			-3.495
155304.000			10.485			-3.495
155404.000			10.484			-3.495
155505.000			10.483			-3.494
155604.000			10.483			-3.494
155704.000			10.484			-3.495
155805.000			10.483			-3.494
155903.000			10.483			-3.494
156004.000			10.483			-3.494
156104.000			10.483			-3.494
156204.000			10.483			-3.494
156304.000			10.483			-3.494
156405.000			10.483			-3.494
156504.000			10.482			-3.494
156604.000			10.481			-3.494
156705.000			10.482			-3.494
156803.000			10.482			-3.494
156904.000			10.482			-3.494
157005.000			10.482			-3.494
157104.000			10.482			-3.494
157204.000			10.482			-3.494
157305.000			10.482			-3.494
157404.000			10.482			-3.494
157504.000			10.481			-3.494
157605.000			10.481			-3.494
157703.000			10.480			-3.493
157804.000			10.481			-3.494
157905.000			10.481			-3.494
158004.000			10.481			-3.494
158105.000			10.481			-3.494
158204.000			10.480			-3.493
158304.000			10.481			-3.494
158405.000			10.481			-3.494
158504.000			10.480			-3.493
158603.000			10.480			-3.493
158705.000			10.480			-3.493
158804.000			10.479			-3.493
158904.000			10.479			-3.493
159005.000			10.480			-3.493
159104.000			10.480			-3.493
159204.000			10.478			-3.493
159305.000			10.478			-3.493
159404.000			10.479			-3.493
159503.000			10.479			-3.493
159605.000			10.478			-3.493
159704.000			10.478			-3.493
159804.000			10.478			-3.493
159905.000			10.478			-3.493
160004.000			10.479			-3.493
160104.000			10.478			-3.493
160205.000			10.476			-3.492
160304.000			10.477			-3.492
160403.000			10.478			-3.493
160505.000			10.477			-3.492
160604.000			10.478			-3.493
160704.000			10.477			-3.492
160805.000			10.475			-3.492
160904.000			10.476			-3.492
161004.000			10.478			-3.493
161104.000			10.477			-3.492
161204.000			10.477			-3.492
161303.000			10.476			-3.492
161404.000			10.476			-3.492
161504.000			10.477			-3.492
161605.000			10.477			-3.492
161704.000			10.476			-3.492
161804.000			10.476			-3.492
161905.000			10.475			-3.492
162004.000			10.475			-3.492
162104.000			10.475			-3.492
162204.000			10.475			-3.492
162304.000			10.475			-3.492
162404.000			10.475			-3.492
162505.000			10.475			-3.492
162604.000			10.474			-3.491
162704.000			10.474			-3.491
162805.000			10.474			-3.491
162904.000			10.475			-3.492
163004.000			10.473			-3.491
163104.000			10.474			-3.491
163204.000			10.473			-3.491
163304.000			10.473			-3.491
163405.000			10.473			-3.491
163504.000			10.473			-3.491
163604.000			10.473			-3.491
163705.000			10.473			-3.491
163804.000			10.474			-3.491
163904.000			10.473			-3.491
164004.000			10.473			-3.491
164104.000			10.473			-3.491
164204.000			10.473			-3.491
164304.000			10.473			-3.491
164404.000			10.472			-3.491
164505.000			10.472			-3.491
164604.000			10.471			-3.490
164703.000			10.470			-3.490
164805.000			10.471			-3.490
164903.000			10.471			-3.490
165004.000			10.472			-3.491
165105.000			10.471			-3.490
165204.000			10.471			-3.490
165304.000			10.470			-3.490
165405.000			10.470			-3.490
165504.000			10.470			-3.490
165603.000			10.470			-3.490
165705.000			10.470			-3.490
165803.000			10.470			-3.490
165904.000			10.469			-3.490
166005.000			10.469			-3.490
166104.000			10.469			-3.490
166204.000			10.469			-3.490
166305.000			10.469			-3.490
166404.000			10.469			-3.490
166503.000			10.468			-3.489
166605.000			10.468			-3.489
166703.000			10.469			-3.490
166804.000			10.469			-3.490
166905.000			10.469			-3.490
167004.000			10.468			-3.489
167104.000			10.469			-3.490
167205.000			10.468			-3.489
167304.000			10.467			-3.489
167403.000			10.467			-3.489
167505.000			10.468			-3.489
167603.000			10.468			-3.489
167705.000			10.468			-3.489
167804.000			10.467			-3.489
167904.000			10.467			-3.489
168005.000			10.467			-3.489
168104.000			10.467			-3.489
168204.000			10.467			-3.489
168304.000			10.466			-3.489
168404.000			10.467			-3.489
168503.000			10.467			-3.489
168605.000			10.466			-3.489
168704.000			10.467			-3.489
168804.000			10.466			-3.489
168905.000			10.466			-3.489
169004.000			10.466			-3.489
169104.000			10.465			-3.488
169205.000			10.465			-3.488
169304.000			10.466			-3.489
169403.000			10.465			-3.488
169505.000			10.465			-3.488
169604.000			10.465			-3.488
169704.000			10.465			-3.488
169805.000			10.466			-3.489
169904.000			10.465			-3.488
170004.000			10.465			-3.488
170105.000			10.465			-3.488
170204.000			10.465			-3.488
170303.000			10.466			-3.489
170405.000			10.465			-3.488
170504.000			10.464			-3.488
170604.000			10.463			-3.488
170705.000			10.464			-3.488
170804.000			10.464			-3.488
170905.000			10.464			-3.488
171003.000			10.464			-3.488
171104.000			10.464			-3.488
171204.000			10.464			-3.488
171304.000			10.464			-3.488
171404.000			10.463			-3.488
171505.000			10.463			-3.488
171604.000			10.463			-3.488
171704.000			10.462			-3.487
171805.000			10.461			-3.487
171903.000			10.461			-3.487
172004.000			10.461			-3.487
172105.000			10.462			-3.487
172204.000			10.461			-3.487
172304.000			10.461			-3.487
172405.000			10.461			-3.487
172504.000			10.461			-3.487
172604.000			10.462			-3.487
172705.000			10.462			-3.487
172803.000			10.462			-3.487
172904.000			10.461			-3.487
173005.000			10.460			-3.487
173104.000			10.460			-3.487
173204.000			10.460			-3.487
173305.000			10.460			-3.487
173404.000			10.461			-3.487
173503.000			10.460			-3.487
173605.000			10.459			-3.486
173703.000			10.460			-3.487
173804.000			10.460			-3.487
173905.000			10.460			-3.487
174004.000			10.460			-3.487
174105.000			10.459			-3.486
174204.000			10.460			-3.487
174304.000			10.459			-3.486
174405.000			10.458			-3.486
174504.000			10.459			-3.486
174603.000			10.459			-3.486
174705.000			10.458			-3.486
174804.000			10.458			-3.486
174904.000			10.459			-3.486
175005.000			10.459			-3.486
175104.000			10.458			-3.486
175204.000			10.458			-3.486
175305.000			10.458			-3.486
175404.000			10.458			-3.486
175503.000			10.458			-3.486
175605.000			10.457			-3.486
175704.000			10.457			-3.486
175804.000			10.457			-3.486
175905.000			10.457			-3.486
176004.000			10.458			-3.486
176104.000			10.458			-3.486
176205.000			10.458			-3.486
176304.000			10.458			-3.486
176403.000			10.458			-3.486
176505.000			10.458			-3.486
176604.000			10.457			-3.486
176704.000			10.457			-3.486
176805.000			10.457			-3.486
176904.000			10.458			-3.486
177004.000			10.457			-3.486
177104.000			10.456			-3.485
177204.000			10.456			-3.485
177303.000			10.456			-3.485
177404.000			10.456			-3.485
177504.000			10.455			-3.485
177605.000			10.455			-3.485
177704.000			10.455			-3.485
177804.000			10.455			-3.485
177905.000			10.455			-3.485
178004.000			10.455			-3.485
178104.000			10.455			-3.485
178204.000			10.456			-3.485
178304.000			10.455			-3.485
178404.000			10.454			-3.485
178505.000			10.454			-3.485
178604.000			10.455			-3.485
178704.000			10.456			-3.485
178805.000			10.455			-3.485
178904.000			10.455			-3.485
179004.000			10.455			-3.485
179104.000			10.454			-3.485
179204.000			10.454			-3.485
179303.000			10.454			-3.485
179405.000			10.454			-3.485
179504.000			10.455			-3.485
179604.000			10.454			-3.485
179705.000			10.454			-3.485
179804.000			10.453			-3.484
179904.000			10.454			-3.485
180004.000			10.453			-3.484
180104.000			10.453			-3.484
180203.000			10.453			-3.484
180305.000			10.453			-3.484
180404.000			10.452			-3.484
180505.000			10.453			-3.484
180604.000			10.453			-3.484
180704.000			10.451			-3.484
180805.000			10.451			-3.484
180903.000			10.452			-3.484
181004.000			10.452			-3.484
181105.000			10.451			-3.484
181204.000			10.451			-3.484
181304.000			10.451			-3.484
181405.000			10.452			-3.484
181504.000			10.452			-3.484
181604.000			10.452			-3.484
181705.000			10.451			-3.484
181803.000			10.451			-3.484
181904.000			10.451			-3.484
182005.000			10.451			-3.484
182104.000			10.451			-3.484
182204.000			10.450			-3.483
182305.000			10.451			-3.484
182404.000			10.451			-3.484
182503.000			10.452			-3.484
182605.000			10.450			-3.483
182703.000			10.450			-3.483
182804.000			10.450			-3.483
182905.000			10.450			-3.483
183004.000			10.451			-3.484
183104.000			10.451			-3.484
183205.000			10.450			-3.483
183304.000			10.449			-3.483
183403.000			10.450			-3.483
183505.000			10.449			-3.483
183604.000			10.449			-3.483
183705.000			10.449			-3.483
183804.000			10.450			-3.483
183904.000			10.449			-3.483
184005.000			10.449			-3.483
184104.000			10.448			-3.483
184204.000			10.448			-3.483
184304.000			10.449			-3.483
184404.000			10.448			-3.483
184504.000			10.448			-3.483
184605.000			10.449			-3.483
184704.000			10.449			-3.483
184804.000			10.448			-3.483
184905.000			10.446			-3.482
185004.000			10.447			-3.482
185104.000			10.447			-3.482
185204.000			10.448			-3.483
185304.000			10.447			-3.482
185404.000			10.447			-3.482
185505.000			10.447			-3.482
185604.000			10.447			-3.482
185704.000			10.446			-3.482
185805.000			10.447			-3.482
185904.000			10.446			-3.482
186004.000			10.446			-3.482
186104.000			10.446			-3.482
186204.000			10.446			-3.482
186304.000			10.446			-3.482
186405.000			10.446			-3.482
186504.000			10.447			-3.482
186604.000			10.445			-3.482
186705.000			10.444			-3.481
186804.000			10.446			-3.482
186905.000			10.445			-3.482
187003.000			10.444			-3.481
187104.000			10.444			-3.481
187205.000			10.445			-3.482
187304.000			10.445			-3.482
187404.000			10.445			-3.482
187505.000			10.445			-3.482
187604.000			10.446			-3.482
187704.000			10.445			-3.482
187805.000			10.443			-3.481
187903.000			10.443			-3.481
188004.000			10.444			-3.481
188105.000			10.444			-3.481
188204.000			10.443			-3.481
188304.000			10.443			-3.481
188405.000			10.443			-3.481
188504.000			10.443			-3.481
188604.000			10.443			-3.481
188705.000			10.443			-3.481
188803.000			10.443			-3.481
188904.000			10.442			-3.481
189005.000			10.442			-3.481
189104.000			10.442			-3.481
189204.000			10.442			-3.481
189305.000			10.443			-3.481
189404.000			10.442			-3.481
189504.000			10.442			-3.481
189605.000			10.441			-3.480
189703.000			10.441			-3.480
189804.000			10.441			-3.480
189905.000			10.442			-3.481
190004.000			10.441			-3.480
190105.000			10.441			-3.480
190204.000			10.441			-3.480
190304.000			10.441			-3.480
190405.000			10.441			-3.480
190504.000			10.441			-3.480
190603.000			10.441			-3.480
190705.000			10.441			-3.480
190804.000			10.440			-3.480
190904.000			10.441			-3.480
191005.000			10.440			-3.480
191104.000			10.440			-3.480
191204.000			10.440			-3.480
191305.000			10.439			-3.480
191404.000			10.439			-3.480
191503.000			10.440			-3.480
191605.000			10.439			-3.480
191704.000			10.440			-3.480
191804.000			10.440			-3.480
191905.000			10.439			-3.480
192004.000			10.438			-3.479
192104.000			10.438			-3.479
192204.000			10.438			-3.479
192304.000			10.438			-3.479
192403.000			10.438			-3.479
192505.000			10.438			-3.479
192604.000			10.438			-3.479
192704.000			10.438			-3.479
192805.000			10.437			-3.479
192904.000			10.437			-3.479
193004.000			10.437			-3.479
193103.000			10.437			-3.479
193204.000			10.437			-3.479
193303.000			10.437			-3.479
193404.000			10.436			-3.479
193504.000			10.436			-3.479
193605.000			10.437			-3.479
193704.000			10.437			-3.479
193804.000			10.437			-3.479
193905.000			10.436			-3.479
194003.000			10.436			-3.479
194104.000			10.435			-3.478
194204.000			10.435			-3.478
194304.000			10.436			-3.479
194404.000			10.436			-3.479
194505.000			10.436			-3.479
194604.000			10.436			-3.479
194704.000			10.436			-3.479
194805.000			10.435			-3.478
194903.000			10.435			-3.478
195004.000			10.435			-3.478
195105.000			10.434			-3.478
195204.000			10.435			-3.478
195304.000			10.436			-3.479
195405.000			10.435			-3.478
195504.000			10.435			-3.478
195604.000			10.435			-3.478
195705.000			10.435			-3.478
195803.000			10.434			-3.478
195904.000			10.434			-3.478
196005.000			10.435			-3.478
196104.000			10.434			-3.478
196204.000			10.433			-3.478
196304.000			10.434			-3.478
196404.000			10.434			-3.478
196505.000			10.434			-3.478
196604.000			10.434			-3.478
196703.000			10.433			-3.478
196805.000			10.433			-3.478
196904.000			10.433			-3.478
197004.000			10.433			-3.478
197105.000			10.433			-3.478
197204.000			10.434			-3.478
197304.000			10.434			-3.478
197405.000			10.433			-3.478
197504.000			10.433			-3.478
197603.000			10.434			-3.478
197705.000			10.432			-3.477
197804.000			10.432			-3.477
197904.000			10.432			-3.477
198005.000			10.433			-3.478
198104.000			10.432			-3.477
198204.000			10.432			-3.477
198305.000			10.432			-3.477
198404.000			10.432			-3.477
198503.000			10.432			-3.477
198605.000			10.432			-3.477
198704.000			10.432			-3.477
198804.000			10.431			-3.477
198905.000			10.431			-3.477
199004.000			10.432			-3.477
199104.000			10.431			-3.477
199205.000			10.431			-3.477
199304.000			10.431			-3.477
199403.000			10.431			-3.477
199505.000			10.431			-3.477
199604.000			10.430			-3.477
199705.000			10.430			-3.477
199804.000			10.431			-3.477
199904.000			10.429			-3.476
200005.000			10.430			-3.477
200104.000			10.430			-3.477
200204.000			10.430			-3.477
200304.000			10.430			-3.477
200404.000			10.430			-3.477
200504.000			10.430			-3.477
200605.000			10.430			-3.477
200704.000			10.429			-3.476
200804.000			10.428			-3.476
200905.000			10.428			-3.476
201003.000			10.428			-3.476
201104.000			10.428			-3.476
201205.000			10.428			-3.476
201304.000			10.429			-3.476
201404.000			10.429			-3.476
201505.000			10.429			-3.476
201604.000			10.428			-3.476
201704.000			10.428			-3.476
201805.000			10.428			-3.476
201903.000			10.428			-3.476
202004.000			10.428			-3.476
202105.000			10.427			-3.476
202204.000			10.428			-3.476
202304.000			10.428			-3.476
202405.000			10.427			-3.476
202504.000			10.427			-3.476
202603.000			10.426			-3.475
202705.000			10.426			-3.475
202804.000			10.426			-3.475
202905.000			10.426			-3.475
203004.000			10.427			-3.476
203104.000			10.427			-3.476
203205.000			10.426			-3.475
203304.000			10.427			-3.476
203404.000			10.427			-3.476
203504.000			10.427			-3.476
203604.000			10.426			-3.475
203704.000			10.425			-3.475
203805.000			10.425			-3.475
203904.000			10.426			-3.475
204004.000			10.426			-3.475
204105.000			10.425			-3.475
204203.000			10.424			-3.475
204304.000			10.425			-3.475
204405.000			10.425			-3.475
204504.000			10.425			-3.475
204604.000			10.425			-3.475
204705.000			10.424			-3.475
204804.000			10.424			-3.475
204904.000			10.424			-3.475
205005.000			10.424			-3.475
205103.000			10.424			-3.475
205204.000			10.425			-3.475
205305.000			10.424			-3.475
205404.000			10.423			-3.474
205504.000			10.423			-3.474
205605.000			10.423			-3.474
205704.000			10.424			-3.475
205803.000			10.423			-3.474
205905.000			10.423			-3.474
206004.000			10.423			-3.474
206105.000			10.422			-3.474
206204.000			10.422			-3.474
206304.000			10.423			-3.474
206405.000			10.422			-3.474
206503.000			10.422			-3.474
206604.000			10.422			-3.474
206704.000			10.422			-3.474
206804.000			10.422			-3.474
206904.000			10.422			-3.474
207005.000			10.421			-3.474
207104.000			10.422			-3.474
207204.000			10.422			-3.474
207305.000			10.422			-3.474
207403.000			10.422			-3.474
207504.000			10.422			-3.474
207605.000			10.421			-3.474
207704.000			10.421			-3.474
207804.000			10.421			-3.474
207905.000			10.421			-3.474
208004.000			10.422			-3.474
208103.000			10.422			-3.474
208205.000			10.421			-3.474
208304.000			10.420			-3.473
208404.000			10.419			-3.473
208505.000			10.420			-3.473
208604.000			10.419			-3.473
208704.000			10.419			-3.473
208804.000			10.419			-3.473
208904.000			10.419			-3.473
209003.000			10.420			-3.473
209105.000			10.421			-3.474
209204.000			10.420			-3.473
209305.000			10.420			-3.473
209404.000			10.420			-3.473
209504.000			10.420			-3.473
209605.000			10.419			-3.473
209703.000			10.418			-3.473
209804.000			10.418			-3.473
209905.000			10.419			-3.473
210004.000			10.419			-3.473
210104.000			10.418			-3.473
210205.000			10.419			-3.473
210304.000			10.419			-3.473
210404.000			10.419			-3.473
210505.000			10.418			-3.473
210603.000			10.418			-3.473
210704.000			10.418			-3.473
210805.000			10.417			-3.472
210904.000			10.418			-3.473
211004.000			10.419			-3.473
211105.000			10.419			-3.473
211204.000			10.418			-3.473
211303.000			10.418			-3.473
211405.000			10.418			-3.473
211504.000			10.418			-3.473
211604.000			10.417			-3.472
211705.000			10.417			-3.472
211804.000			10.418			-3.473
211904.000			10.417			-3.472
212005.000			10.416			-3.472
212104.000			10.416			-3.472
212203.000			10.416			-3.472
212305.000			10.416			-3.472
212404.000			10.416			-3.472
212505.000			10.417			-3.472
212604.000			10.417			-3.472
212704.000			10.417			-3.472
212805.000			10.416			-3.472
212903.000			10.416			-3.472
213004.000			10.416			-3.472
213105.000			10.416			-3.472
213204.000			10.415			-3.472
213304.000			10.414			-3.471
213405.000			10.414			-3.471
213504.000			10.414			-3.471
213603.000			10.414			-3.471
213705.000			10.415			-3.472
213804.000			10.416			-3.472
213904.000			10.415			-3.472
214005.000			10.414			-3.471
214104.000			10.414			-3.471
214204.000			10.415			-3.472
214305.000			10.414			-3.471
214404.000			10.414			-3.471
214503.000			10.414			-3.471
214605.000			10.415			-3.472
214704.000			10.415			-3.472
214804.000			10.414			-3.471
214905.000			10.414			-3.471
215004.000			10.414			-3.471
215104.000			10.413			-3.471
215204.000			10.414			-3.471
215304.000			10.414			-3.471
215404.000			10.413			-3.471
215504.000			10.414			-3.471
215604.000			10.413			-3.471
215705.000			10.413			-3.471
215804.000			10.414			-3.471
215904.000			10.413			-3.471
216005.000			10.413			-3.471
216103.000			10.413			-3.471
216204.000			10.413			-3.471
216305.000			10.412			-3.471
216404.000			10.413			-3.471
216504.000			10.413			-3.471
216605.000			10.412			-3.471
216704.000			10.412			-3.471
216803.000			10.411			-3.470
216905.000			10.411			-3.470
217004.000			10.412			-3.471
217104.000			10.412			-3.471
217205.000			10.410			-3.470
217304.000			10.410			-3.470
217404.000			10.411			-3.470
217504.000			10.410			-3.470
217604.000			10.409			-3.470
217703.000			10.410			-3.470
217805.000			10.411			-3.470
217904.000			10.411			-3.470
218004.000			10.411			-3.470
218105.000			10.411			-3.470
218204.000			10.411			-3.470
218304.000			10.410			-3.470
218404.000			10.411			-3.470
218504.000			10.411			-3.470
218604.000			10.410			-3.470
218704.000			10.409			-3.470
218804.000			10.410			-3.470
218905.000			10.408			-3.469
219004.000			10.408			-3.469
219103.000			10.409			-3.470
219205.000			10.410			-3.470
219304.000			10.410			-3.470
219404.000			10.410			-3.470
219505.000			10.409			-3.470
219604.000			10.408			-3.469
219704.000			10.409			-3.470
219805.000			10.410			-3.470
219904.000			10.411			-3.470
220003.000			10.410			-3.470
220105.000			10.409			-3.470
220204.000			10.408			-3.469
220304.000			10.408			-3.469
220405.000			10.408			-3.469
220504.000			10.409			-3.470
220604.000			10.409			-3.470
220704.000			10.409			-3.470
220804.000			10.408			-3.469
220903.000			10.406			-3.469
221005.000			10.407			-3.469
221104.000			10.409			-3.470
221204.000			10.408			-3.469
221305.000			10.407			-3.469
221404.000			10.408			-3.469
221504.000			10.408			-3.469
221604.000			10.408			-3.469
221704.000			10.408			-3.469
221804.000			10.407			-3.469
221904.000			10.406			-3.469
222004.000			10.406			-3.469
222105.000			10.407			-3.469
222204.000			10.407			-3.469
222303.000			10.406			-3.469
222405.000			10.406			-3.469
222504.000			10.406			-3.469
222604.000			10.406			-3.469
222705.000			10.405			-3.468
222804.000			10.406			-3.469
222904.000			10.406			-3.469
223005.000			10.406			-3.469
223104.000			10.406			-3.469
223203.000			10.405			-3.468
223305.000			10.405			-3.468
223404.000			10.405			-3.468
223504.000			10.405			-3.468
223605.000			10.405			-3.468
223704.000			10.405			-3.468
223804.000			10.405			-3.468
223904.000			10.405			-3.468
224004.000			10.404			-3.468
224104.000			10.405			-3.468
224205.000			10.405			-3.468
224304.000			10.404			-3.468
224404.000			10.404			-3.468
224505.000			10.404			-3.468
224604.000			10.403			-3.468
224704.000			10.404			-3.468
224804.000			10.404			-3.468
224904.000			10.403			-3.468
225004.000			10.403			-3.468
225104.000			10.404			-3.468
225204.000			10.404			-3.468
225305.000			10.404			-3.468
225404.000			10.403			-3.468
225503.000			10.403			-3.468
225605.000			10.403			-3.468
225704.000			10.404			-3.468
225804.000			10.403			-3.468
225905.000			10.402			-3.467
226004.000			10.402			-3.467
226104.000			10.402			-3.467
226205.000			10.402			-3.467
226304.000			10.402			-3.467
226403.000			10.402			-3.467
226505.000			10.402			-3.467
226604.000			10.403			-3.468
226704.000			10.403			-3.468
226805.000			10.401			-3.467
226904.000			10.401			-3.467
227004.000			10.402			-3.467
227104.000			10.401			-3.467
227204.000			10.401			-3.467
227304.000			10.401			-3.467
227405.000			10.401			-3.467
227504.000			10.401			-3.467
227604.000			10.400			-3.467
227705.000			10.401			-3.467
227804.000			10.400			-3.467
227904.000			10.400			-3.467
228004.000			10.401			-3.467
228104.000			10.401			-3.467
228204.000			10.401			-3.467
228304.000			10.401			-3.467
228404.000			10.401			-3.467
228505.000			10.401			-3.467
228604.000			10.400			-3.467
228703.000			10.399			-3.466
228805.000			10.399			-3.466
228904.000			10.400			-3.467
229004.000			10.400			-3.467
229105.000			10.398			-3.466
229204.000			10.399			-3.466
229304.000			10.399			-3.466
229405.000			10.399			-3.466
229504.000			10.399			-3.466
229603.000			10.400			-3.467
229705.000			10.400			-3.467
229803.000			10.399			-3.466
229904.000			10.399			-3.466
230005.000			10.399			-3.466
230104.000			10.399			-3.466
230204.000			10.399			-3.466
230305.000			10.398			-3.466
230404.000			10.399			-3.466
230503.000			10.399			-3.466
230605.000			10.398			-3.466
230704.000			10.398			-3.466
230804.000			10.399			-3.466
230905.000			10.400			-3.467
231004.000			10.399			-3.466
231104.000			10.400			-3.467
231205.000			10.400			-3.467
231304.000			10.400			-3.467
231403.000			10.401			-3.467
231505.000			10.400			-3.467
231604.000			10.401			-3.467
231705.000			10.402			-3.467
231804.000			10.401			-3.467
231904.000			10.402			-3.467
232005.000			10.401			-3.467
232103.000			10.401			-3.467
232204.000			10.402			-3.467
232304.000			10.401			-3.467
232404.000			10.403			-3.468
232504.000			10.403			-3.468
232605.000			10.401			-3.467
232704.000			10.401			-3.467
232804.000			10.402			-3.467
232905.000			10.402			-3.467
233003.000			10.401			-3.467
233104.000			10.400			-3.467
233205.000			10.401			-3.467
233304.000			10.401			-3.467
233404.000			10.400			-3.467
233505.000			10.400			-3.467
233604.000			10.400			-3.467
233703.000			10.400			-3.467
233805.000			10.399			-3.466
233904.000			10.399			-3.466
234004.000			10.398			-3.466
234105.000			10.399			-3.466
234204.000			10.398			-3.466
234304.000			10.398			-3.466
234405.000			10.396			-3.465
234504.000			10.397			-3.466
234603.000			10.397			-3.466
234705.000			10.397			-3.466
234804.000			10.396			-3.465
234905.000			10.395			-3.465
235004.000			10.394			-3.465
235104.000			10.394			-3.465
235205.000			10.395			-3.465
235304.000			10.396			-3.465
235404.000			10.395			-3.465
235504.000			10.395			-3.465
235604.000			10.394			-3.465
235704.000			10.395			-3.465
235805.000			10.394			-3.465
235904.000			10.394			-3.465
236004.000			10.394			-3.465
236105.000			10.394			-3.465
236204.000			10.393			-3.464
236304.000			10.394			-3.465
236404.000			10.394			-3.465
236504.000			10.393			-3.464
236604.000			10.394			-3.465
236705.000			10.393			-3.464
236804.000			10.393			-3.464
236904.000			10.393			-3.464
237005.000			10.392			-3.464
237104.000			10.392			-3.464
237204.000			10.391			-3.464
237304.000			10.392			-3.464
237404.000			10.392			-3.464
237504.000			10.392			-3.464
237605.000			10.393			-3.464
237704.000			10.391			-3.464
237804.000			10.391			-3.464
237905.000			10.391			-3.464
238004.000			10.390			-3.463
238105.000			10.390			-3.463
238203.000			10.391			-3.464
238304.000			10.391			-3.464
238405.000			10.391			-3.464
238504.000			10.391			-3.464
238604.000			10.391			-3.464
238705.000			10.390			-3.463
238804.000			10.391			-3.464
238904.000			10.390			-3.463
239005.000			10.390			-3.463
239103.000			10.390			-3.463
239204.000			10.389			-3.463
239305.000			10.390			-3.463
239404.000			10.390			-3.463
239504.000			10.390			-3.463
239605.000			10.389			-3.463
239704.000			10.389			-3.463
239804.000			10.389			-3.463
239905.000			10.388			-3.463
240003.000			10.389			-3.463
240104.000			10.389			-3.463
240205.000			10.389			-3.463
240304.000			10.389			-3.463
240404.000			10.389			-3.463
240505.000			10.389			-3.463
240604.000			10.388			-3.463
240704.000			10.389			-3.463
240805.000			10.388			-3.463
240903.000			10.388			-3.463
241004.000			10.388			-3.463
241105.000			10.388			-3.463
241204.000			10.388			-3.463
241305.000			10.389			-3.463
241404.000			10.388			-3.463
241504.000			10.388			-3.463
241604.000			10.388			-3.463
241704.000			10.388			-3.463
241803.000			10.387			-3.462
241905.000			10.387			-3.462
242004.000			10.387			-3.462
242104.000			10.387			-3.462
242205.000			10.387			-3.462
242304.000			10.387			-3.462
242404.000			10.388			-3.463
242504.000			10.388			-3.463
242604.000			10.387			-3.462
242703.000			10.386			-3.462
242805.000			10.386			-3.462
242904.000			10.387			-3.462
243004.000			10.388			-3.463
243105.000			10.388			-3.463
243204.000			10.387			-3.462
243304.000			10.387			-3.462
243404.000			10.386			-3.462
243504.000			10.386			-3.462
243604.000			10.388			-3.463
243705.000			10.387			-3.462
243804.000			10.386			-3.462
243904.000			10.386			-3.462
244005.000			10.386			-3.462
244104.000			10.386			-3.462
244204.000			10.385			-3.462
244303.000			10.385			-3.462
244404.000			10.386			-3.462
244505.000			10.386			-3.462
244604.000			10.385			-3.462
244704.000			10.385			-3.462
244805.000			10.385			-3.462
244904.000			10.386			-3.462
245004.000			10.385			-3.462
245105.000			10.385			-3.462
245203.000			10.385			-3.462
245304.000			10.385			-3.462
245405.000			10.385			-3.462
245504.000			10.385			-3.462
245604.000			10.384			-3.461
245705.000			10.383			-3.461
245804.000			10.383			-3.461
245904.000			10.384			-3.461
246005.000			10.384			-3.461
246103.000			10.384			-3.461
246204.000			10.384			-3.461
246305.000			10.384			-3.461
246404.000			10.383			-3.461
246504.000			10.384			-3.461
246605.000			10.383			-3.461
246704.000			10.383			-3.461
246804.000			10.383			-3.461
246905.000			10.383			-3.461
247003.000			10.383			-3.461
247104.000			10.382			-3.461
247205.000			10.383			-3.461
247304.000			10.383			-3.461
247404.000			10.381			-3.460
247504.000			10.382			-3.461
247604.000			10.381			-3.460
247705.000			10.382			-3.461
247804.000			10.382			-3.461
247903.000			10.382			-3.461
248005.000			10.381			-3.460
248104.000			10.381			-3.460
248204.000			10.382			-3.461
248305.000			10.382			-3.461
248404.000			10.381			-3.460
248504.000			10.381			-3.460
248605.000			10.380			-3.460
248704.000			10.381			-3.460
248803.000			10.381			-3.460
248905.000			10.382			-3.461
249004.000			10.381			-3.460
249104.000			10.379			-3.460
249205.000			10.379			-3.460
249304.000			10.380			-3.460
249404.000			10.380			-3.460
249505.000			10.380			-3.460
249604.000			10.380			-3.460
249703.000			10.380			-3.460
249805.000			10.379			-3.460
249903.000			10.379			-3.460
250004.000			10.379			-3.460
250105.000			10.380			-3.460
250204.000			10.380			-3.460
250304.000			10.379			-3.460
250405.000			10.378			-3.459
250504.000			10.378			-3.459
250603.000			10.378			-3.459
250705.000			10.379			-3.460
250804.000			10.379			-3.460
250905.000			10.379			-3.460
251004.000			10.378			-3.459
251104.000			10.377			-3.459
251205.000			10.378			-3.459
251304.000			10.378			-3.459
251404.000			10.379			-3.460
251504.000			10.379			-3.460
251604.000			10.378			-3.459
251704.000			10.378			-3.459
251805.000			10.377			-3.459
251904.000			10.377			-3.459
252004.000			10.377			-3.459
252105.000			10.377			-3.459
252204.000			10.377			-3.459
252304.000			10.378			-3.459
252404.000			10.377			-3.459
252504.000			10.376			-3.459
252604.000			10.376			-3.459
252705.000			10.376			-3.459
252804.000			10.377			-3.459
252904.000			10.377			-3.459
253005.000			10.376			-3.459
253104.000			10.375			-3.458
253204.000			10.375			-3.458
253304.000			10.376			-3.459
253404.000			10.376			-3.459
253504.000			10.377			-3.459
253605.000			10.378			-3.459
253704.000			10.376			-3.459
253804.000			10.375			-3.458
253905.000			10.376			-3.459
254004.000			10.376			-3.459
254105.000			10.376			-3.459
254203.000			10.377			-3.459
254304.000			10.376			-3.459
254405.000			10.376			-3.459
254504.000			10.376			-3.459
254604.000			10.376			-3.459
254705.000			10.376			-3.459
254804.000			10.376			-3.459
254904.000			10.376			-3.459
255005.000			10.375			-3.458
255103.000			10.375			-3.458
255204.000			10.375			-3.458
255305.000			10.375			-3.458
255404.000			10.375			-3.458
255504.000			10.374			-3.458
255605.000			10.375			-3.458
255704.000			10.375			-3.458
255804.000			10.375			-3.458
255905.000			10.375			-3.458
256003.000			10.375			-3.458
256104.000			10.375			-3.458
256205.000			10.375			-3.458
256304.000			10.374			-3.458
256404.000			10.374			-3.458
256505.000			10.374			-3.458
256604.000			10.373			-3.458
256704.000			10.374			-3.458
256805.000			10.374			-3.458
256903.000			10.373			-3.458
257004.000			10.372			-3.457
257105.000			10.372			-3.457
257204.000			10.373			-3.458
257305.000			10.372			-3.457
257404.000			10.373			-3.458
257504.000			10.374			-3.458
257605.000			10.373			-3.458
257704.000			10.372			-3.457
257803.000			10.372			-3.457
257905.000			10.372			-3.457
258004.000			10.372			-3.457
258104.000			10.373			-3.458
258205.000			10.372			-3.457
258304.000			10.372			-3.457
258404.000			10.372			-3.457
258505.000			10.372			-3.457
258604.000			10.371			-3.457
258703.000			10.371			-3.457
258805.000			10.371			-3.457
258904.000			10.371			-3.457
259004.000			10.370			-3.457
259105.000			10.370			-3.457
259204.000			10.371			-3.457
259304.000			10.372			-3.457
259405.000			10.370			-3.457
259504.000			10.371			-3.457
259603.000			10.371			-3.457
259705.000			10.370			-3.457
259804.000			10.370			-3.457
259904.000			10.370			-3.457
260005.000			10.370			-3.457
260104.000			10.370			-3.457
260204.000			10.370			-3.457
260304.000			10.370			-3.457
260404.000			10.370			-3.457
260503.000			10.370			-3.457
260604.000			10.370			-3.457
260704.000			10.370			-3.457
260805.000			10.370			-3.457
260904.000			10.369			-3.456
261004.000			10.369			-3.456
261105.000			10.368			-3.456
261203.000			10.368			-3.456
261304.000			10.368			-3.456
261404.000			10.368			-3.456
261504.000			10.368			-3.456
261604.000			10.368			-3.456
261705.000			10.366			-3.455
261804.000			10.367			-3.456
261904.000			10.367			-3.456
262005.000			10.367			-3.456
262103.000			10.367			-3.456
262204.000			10.368			-3.456
262304.000			10.368			-3.456
262404.000			10.368			-3.456
262504.000			10.367			-3.456
262605.000			10.367			-3.456
262704.000			10.368			-3.456
262804.000			10.367			-3.456
262905.000			10.367			-3.456
263003.000			10.366			-3.455
263104.000			10.367			-3.456
263205.000			10.367			-3.456
263304.000			10.367			-3.456
263404.000			10.366			-3.455
263504.000			10.367			-3.456
263604.000			10.367			-3.456
263705.000			10.367			-3.456
263804.000			10.367			-3.456
263903.000			10.367			-3.456
264005.000			10.367			-3.456
264104.000			10.366			-3.455
264204.000			10.366			-3.455
264305.000			10.366			-3.455
264404.000			10.366			-3.455
264504.000			10.367			-3.456
264605.000			10.367			-3.456
264704.000			10.366			-3.455
264803.000			10.365			-3.455
264905.000			10.365			-3.455
265004.000			10.365			-3.455
265104.000			10.365			-3.455
265205.000			10.365			-3.455
265304.000			10.364			-3.455
265404.000			10.365			-3.455
265504.000			10.365			-3.455
265604.000			10.365			-3.455
265703.000			10.365			-3.455
265805.000			10.365			-3.455
265904.000			10.367			-3.456
266004.000			10.366			-3.455
266105.000			10.364			-3.455
266204.000			10.365			-3.455
266304.000			10.365			-3.455
266404.000			10.364			-3.455
266504.000			10.365			-3.455
266603.000			10.366			-3.455
266705.000			10.365			-3.455
266804.000			10.365			-3.455
266905.000			10.364			-3.455
267004.000			10.364			-3.455
267104.000			10.363			-3.454
267205.000			10.363			-3.454
267303.000			10.364			-3.455
267404.000			10.363			-3.454
267505.000			10.364			-3.455
267604.000			10.364			-3.455
267704.000			10.365			-3.455
267805.000			10.365			-3.455
267904.000			10.365			-3.455
268004.000			10.365			-3.455
268105.000			10.365			-3.455
268203.000			10.364			-3.455
268304.000			10.365			-3.455
268405.000			10.364			-3.455
268504.000			10.363			-3.454
268604.000			10.363			-3.454
268705.000			10.362			-3.454
268804.000			10.363			-3.454
268904.000			10.363			-3.454
269005.000			10.363			-3.454
269103.000			10.364			-3.455
269204.000			10.363			-3.454
269305.000			10.363			-3.454
269404.000			10.362			-3.454
269504.000			10.362			-3.454
269605.000			10.362			-3.454
269704.000			10.362			-3.454
269804.000			10.362			-3.454
269905.000			10.362			-3.454
270003.000			10.361			-3.454
270105.000			10.361			-3.454
270204.000			10.362			-3.454
270304.000			10.362			-3.454
270405.000			10.361			-3.454
270504.000			10.362			-3.454
270604.000			10.362			-3.454
270704.000			10.360			-3.453
270804.000			10.360			-3.453
270903.000			10.360			-3.453
271005.000			10.360			-3.453
271104.000			10.361			-3.454
271204.000			10.360			-3.453
271305.000			10.359			-3.453
271404.000			10.360			-3.453
271504.000			10.360			-3.453
271604.000			10.360			-3.453
271704.000			10.359			-3.453
271804.000			10.360			-3.453
271905.000			10.361			-3.454
272004.000			10.361			-3.454
272104.000			10.360			-3.453
272205.000			10.360			-3.453
272304.000			10.360			-3.453
272404.000			10.359			-3.453
272504.000			10.359			-3.453
272604.000			10.359			-3.453
272704.000			10.359			-3.453
272805.000			10.359			-3.453
272904.000			10.358			-3.453
273004.000			10.359			-3.453
273105.000			10.359			-3.453
273203.000			10.359			-3.453
273305.000			10.359			-3.453
273403.000			10.358			-3.453
273504.000			10.358			-3.453
273605.000			10.358			-3.453
273704.000			10.357			-3.452
273804.000			10.358			-3.453
273905.000			10.358			-3.453
274004.000			10.359			-3.453
274103.000			10.359			-3.453
274205.000			10.359			-3.453
274304.000			10.358			-3.453
274404.000			10.357			-3.452
274505.000			10.357			-3.452
274604.000			10.357			-3.452
274704.000			10.357			-3.452
274805.000			10.358			-3.453
274904.000			10.358			-3.453
275003.000			10.359			-3.453
275105.000			10.359			-3.453
275204.000			10.358			-3.453
275304.000			10.358			-3.453
275405.000			10.357			-3.452
275504.000			10.356			-3.452
275604.000			10.357			-3.452
275705.000			10.356			-3.452
275804.000			10.357			-3.452
275903.000			10.357			-3.452
276005.000			10.357			-3.452
276104.000			10.357			-3.452
276204.000			10.356			-3.452
276305.000			10.357			-3.452
276404.000			10.356			-3.452
276505.000			10.356			-3.452
276604.000			10.356			-3.452
276704.000			10.356			-3.452
276804.000			10.356			-3.452
276904.000			10.356			-3.452
277004.000			10.356			-3.452
277105.000			10.356			-3.452
277204.000			10.355			-3.452
277304.000			10.356			-3.452
277405.000			10.356			-3.452
277504.000			10.356			-3.452
277604.000			10.355			-3.452
277704.000			10.355			-3.452
277804.000			10.356			-3.452
277904.000			10.356			-3.452
278005.000			10.356			-3.452
278104.000			10.356			-3.452
278204.000			10.355			-3.452
278305.000			10.355			-3.452
278404.000			10.355			-3.452
278504.000			10.356			-3.452
278604.000			10.355			-3.452
278704.000			10.356			-3.452
278804.000			10.355			-3.452
278905.000			10.354			-3.451
279004.000			10.355			-3.452
279104.000			10.355			-3.452
279205.000			10.354			-3.451
279304.000			10.354			-3.451
279404.000			10.354			-3.451
279503.000			10.354			-3.451
279604.000			10.353			-3.451
279705.000			10.354			-3.451
279804.000			10.353			-3.451
279904.000			10.352			-3.451
280005.000			10.353			-3.451
280104.000			10.353			-3.451
280204.000			10.353			-3.451
280305.000			10.353			-3.451
280403.000			10.354			-3.451
280504.000			10.353			-3.451
280605.000			10.354			-3.451
280704.000			10.353			-3.451
280804.000			10.352			-3.451
280905.000			10.353			-3.451
281004.000			10.353			-3.451
281103.000			10.352			-3.451
281205.000			10.352			-3.451
281304.000			10.352			-3.451
281404.000			10.353			-3.451
281505.000			10.353			-3.451
281604.000			10.352			-3.451
281704.000			10.352			-3.451
281805.000			10.352			-3.451
281904.000			10.352			-3.451
282003.000			10.352			-3.451
282105.000			10.351			-3.450
282204.000			10.351			-3.450
282304.000			10.352			-3.451
282405.000			10.353			-3.451
282504.000			10.352			-3.451
282604.000			10.351			-3.450
282703.000			10.351			-3.450
282804.000			10.351			-3.450
282903.000			10.352			-3.451
283004.000			10.351			-3.450
283104.000			10.350			-3.450
283205.000			10.352			-3.451
283304.000			10.351			-3.450
283404.000			10.351			-3.450
283505.000			10.351			-3.450
283603.000			10.351			-3.450
283704.000			10.351			-3.450
283805.000			10.351			-3.450
283904.000			10.351			-3.450
284004.000			10.350			-3.450
284105.000			10.349			-3.450
284204.000			10.350			-3.450
284304.000			10.351			-3.450
284405.000			10.350			-3.450
284503.000			10.350			-3.450
284604.000			10.350			-3.450
284705.000			10.350			-3.450
284804.000			10.351			-3.450
284904.000			10.351			-3.450
285005.000			10.350			-3.450
285104.000			10.348			-3.449
285203.000			10.349			-3.450
285305.000			10.349			-3.450
285403.000			10.350			-3.450
285504.000			10.350			-3.450
285605.000			10.349			-3.450
285704.000			10.349			-3.450
285804.000			10.349			-3.450
285904.000			10.349			-3.450
286004.000			10.348			-3.449
286103.000			10.348			-3.449
286204.000			10.349			-3.450
286303.000			10.350			-3.450
286405.000			10.349			-3.450
286504.000			10.349			-3.450
286604.000			10.348			-3.449
286705.000			10.347			-3.449
286804.000			10.347			-3.449
286904.000			10.348			-3.449
287004.000			10.347			-3.449
287104.000			10.348			-3.449
287203.000			10.349			-3.450
287305.000			10.348			-3.449
287404.000			10.347			-3.449
287504.000			10.348			-3.449
287605.000			10.348			-3.449
287704.000			10.347			-3.449
287804.000			10.348			-3.449
287904.000			10.348			-3.449
288004.000			10.347			-3.449
288103.000			10.347			-3.449
288205.000			10.347			-3.449
288304.000			10.347			-3.449
288404.000			10.347			-3.449
288505.000			10.348			-3.449
288604.000			10.347			-3.449
288704.000			10.346			-3.449
288804.000			10.346			-3.449
288904.000			10.346			-3.449
289003.000			10.346			-3.449
289105.000			10.347			-3.449
289204.000			10.347			-3.449
289305.000			10.347			-3.449
289404.000			10.346			-3.449
289504.000			10.346			-3.449
289605.000			10.346			-3.449
289703.000			10.345			-3.448
289804.000			10.346			-3.449
289905.000			10.347			-3.449
290004.000			10.346			-3.449
290104.000			10.346			-3.449
290205.000			10.345			-3.448
290304.000			10.345			-3.448
290404.000			10.345			-3.448
290505.000			10.345			-3.448
290603.000			10.345			-3.448
290704.000			10.345			-3.448
290805.000			10.344			-3.448
290904.000			10.344			-3.448
291004.000			10.345			-3.448
291105.000			10.344			-3.448
291204.000			10.344			-3.448
291304.000			10.344			-3.448
291405.000			10.344			-3.448
291503.000			10.345			-3.448
291604.000			10.345			-3.448
291705.000			10.344			-3.448
291804.000			10.344			-3.448
291904.000			10.344			-3.448
292005.000			10.344			-3.448
292104.000			10.343			-3.448
292203.000			10.343			-3.448
292305.000			10.344			-3.448
292403.000			10.343			-3.448
292505.000			10.342			-3.447
292604.000			10.343			-3.448
292704.000			10.342			-3.447
292805.000			10.341			-3.447
292904.000			10.342			-3.447
293004.000			10.342			-3.447
293104.000			10.343			-3.448
293204.000			10.343			-3.448
293304.000			10.344			-3.448
293405.000			10.343			-3.448
293504.000			10.343			-3.448
293604.000			10.342			-3.447
293705.000			10.343			-3.448
293804.000			10.342			-3.447
293904.000			10.342			-3.447
294004.000			10.342			-3.447
294104.000			10.342			-3.447
294204.000			10.341			-3.447
294305.000			10.342			-3.447
294404.000			10.342			-3.447
294504.000			10.342			-3.447
294605.000			10.341			-3.447
294703.000			10.342			-3.447
294804.000			10.342			-3.447
294904.000			10.341			-3.447
295004.000			10.342			-3.447
295104.000			10.342			-3.447
295205.000			10.342			-3.447
295304.000			10.341			-3.447
295404.000			10.341			-3.447
295505.000			10.340			-3.447
295603.000			10.340			-3.447
295705.000			10.341			-3.447
295804.000			10.341			-3.447
295904.000			10.342			-3.447
296005.000			10.341			-3.447
296104.000			10.340			-3.447
296204.000			10.341			-3.447
296305.000			10.340			-3.447
296404.000			10.340			-3.447
296503.000			10.340			-3.447
296605.000			10.340			-3.447
296704.000			10.341			-3.447
296804.000			10.340			-3.447
296905.000			10.340			-3.447
297004.000			10.340			-3.447
297104.000			10.339			-3.446
297204.000			10.339			-3.446
297304.000			10.340			-3.447
297403.000			10.339			-3.446
297505.000			10.339			-3.446
297604.000			10.338			-3.446
297704.000			10.338			-3.446
297805.000			10.339			-3.446
297904.000			10.338			-3.446
298004.000			10.338			-3.446
298105.000			10.339			-3.446
298204.000			10.339			-3.446
298303.000			10.339			-3.446
298405.000			10.339			-3.446
298504.000			10.338			-3.446
298604.000			10.338			-3.446
298705.000			10.338			-3.446
298804.000			10.338			-3.446
298905.000			10.338			-3.446
299004.000			10.337			-3.446
299104.000			10.337			-3.446
299204.000			10.339			-3.446
299304.000			10.339			-3.446
299404.000			10.338			-3.446
299505.000			10.338			-3.446
299604.000			10.339			-3.446
299704.000			10.338			-3.446
299805.000			10.338			-3.446
299904.000			10.338			-3.446
