# Acquired on 25/01/2024 16:10:50 
# SPIDER: Creep_-6mm_GRPCNT1454A-2
# CREEP MEASUREMENT

# time [ms]		force [N]		stiffness [N/mm]
0.000			24.100			-4.017
104.000			24.498			-4.083
205.000			24.421			-4.070
303.000			24.210			-4.035
404.000			24.046			-4.008
505.000			23.914			-3.986
604.000			23.804			-3.967
704.000			23.625			-3.938
804.000			23.550			-3.925
904.000			23.482			-3.914
1004.000			23.420			-3.903
1105.000			23.364			-3.894
1204.000			23.312			-3.885
1304.000			23.263			-3.877
1405.000			23.174			-3.862
1503.000			23.135			-3.856
1604.000			23.097			-3.849
1705.000			23.061			-3.844
1804.000			23.027			-3.838
1904.000			22.995			-3.833
2004.000			22.964			-3.827
2104.000			22.904			-3.817
2204.000			22.877			-3.813
2305.000			22.851			-3.809
2404.000			22.825			-3.804
2504.000			22.801			-3.800
2605.000			22.777			-3.796
2703.000			22.755			-3.792
2805.000			22.713			-3.786
2904.000			22.692			-3.782
3004.000			22.672			-3.779
3105.000			22.654			-3.776
3203.000			22.634			-3.772
3304.000			22.615			-3.769
3405.000			22.597			-3.766
3504.000			22.580			-3.763
3604.000			22.548			-3.758
3705.000			22.532			-3.755
3804.000			22.516			-3.753
3903.000			22.500			-3.750
4005.000			22.485			-3.748
4104.000			22.470			-3.745
4204.000			22.456			-3.743
4305.000			22.428			-3.738
4403.000			22.415			-3.736
4504.000			22.403			-3.734
4605.000			22.390			-3.732
4704.000			22.377			-3.730
4804.000			22.364			-3.727
4905.000			22.352			-3.725
5004.000			22.329			-3.721
5103.000			22.317			-3.720
5205.000			22.306			-3.718
5304.000			22.295			-3.716
5404.000			22.285			-3.714
5505.000			22.274			-3.712
5603.000			22.263			-3.710
5704.000			22.252			-3.709
5805.000			22.232			-3.705
5904.000			22.222			-3.704
6005.000			22.213			-3.702
6104.000			22.203			-3.700
6204.000			22.194			-3.699
6304.000			22.183			-3.697
6404.000			22.174			-3.696
6504.000			22.157			-3.693
6605.000			22.149			-3.691
6704.000			22.139			-3.690
6803.000			22.130			-3.688
6905.000			22.122			-3.687
7004.000			22.113			-3.686
7104.000			22.104			-3.684
7205.000			22.089			-3.682
7304.000			22.082			-3.680
7404.000			22.074			-3.679
7504.000			22.067			-3.678
7604.000			22.060			-3.677
7704.000			22.053			-3.675
7805.000			22.045			-3.674
7904.000			22.031			-3.672
8004.000			22.022			-3.670
8105.000			22.016			-3.669
8204.000			22.009			-3.668
8304.000			22.002			-3.667
8405.000			21.996			-3.666
8504.000			21.988			-3.665
8604.000			21.982			-3.664
8704.000			21.968			-3.661
8804.000			21.961			-3.660
8904.000			21.955			-3.659
9004.000			21.948			-3.658
9104.000			21.942			-3.657
9205.000			21.936			-3.656
9304.000			21.930			-3.655
9403.000			21.919			-3.653
9505.000			21.914			-3.652
9604.000			21.907			-3.651
9704.000			21.900			-3.650
9805.000			21.895			-3.649
9904.000			21.889			-3.648
10004.000			21.883			-3.647
10104.000			21.872			-3.645
10204.000			21.867			-3.645
10304.000			21.861			-3.643
10405.000			21.855			-3.642
10504.000			21.850			-3.642
10603.000			21.845			-3.641
10705.000			21.841			-3.640
10804.000			21.829			-3.638
10904.000			21.824			-3.637
11005.000			21.819			-3.637
11104.000			21.814			-3.636
11204.000			21.809			-3.635
11304.000			21.803			-3.634
11404.000			21.798			-3.633
11504.000			21.792			-3.632
11605.000			21.784			-3.631
11704.000			21.779			-3.630
11804.000			21.774			-3.629
11905.000			21.769			-3.628
12003.000			21.764			-3.627
12104.000			21.760			-3.627
12205.000			21.755			-3.626
12304.000			21.746			-3.624
12405.000			21.741			-3.624
12504.000			21.737			-3.623
12604.000			21.732			-3.622
12704.000			21.726			-3.621
12804.000			21.723			-3.620
12904.000			21.718			-3.620
13005.000			21.709			-3.618
13104.000			21.705			-3.618
13203.000			21.701			-3.617
13305.000			21.696			-3.616
13404.000			21.693			-3.615
13504.000			21.687			-3.615
13605.000			21.684			-3.614
13704.000			21.676			-3.613
13804.000			21.672			-3.612
13904.000			21.667			-3.611
14004.000			21.662			-3.610
14104.000			21.658			-3.610
14205.000			21.654			-3.609
14304.000			21.651			-3.608
14404.000			21.647			-3.608
14505.000			21.638			-3.606
14603.000			21.635			-3.606
14704.000			21.631			-3.605
14805.000			21.626			-3.604
14904.000			21.622			-3.604
15004.000			21.618			-3.603
15105.000			21.614			-3.602
15204.000			21.607			-3.601
15303.000			21.605			-3.601
15405.000			21.601			-3.600
15504.000			21.597			-3.600
15605.000			21.593			-3.599
15704.000			21.588			-3.598
15803.000			21.584			-3.597
15905.000			21.578			-3.596
16004.000			21.575			-3.596
16104.000			21.572			-3.595
16205.000			21.568			-3.595
16304.000			21.564			-3.594
16404.000			21.561			-3.594
16504.000			21.558			-3.593
16604.000			21.550			-3.592
16703.000			21.546			-3.591
16805.000			21.543			-3.591
16904.000			21.541			-3.590
17004.000			21.537			-3.590
17105.000			21.533			-3.589
17203.000			21.529			-3.588
17304.000			21.526			-3.588
17405.000			21.520			-3.587
17504.000			21.517			-3.586
17604.000			21.514			-3.586
17705.000			21.510			-3.585
17804.000			21.507			-3.584
17903.000			21.504			-3.584
18005.000			21.501			-3.584
18104.000			21.494			-3.582
18204.000			21.490			-3.582
18305.000			21.488			-3.581
18404.000			21.486			-3.581
18504.000			21.483			-3.581
18603.000			21.480			-3.580
18704.000			21.477			-3.580
18805.000			21.471			-3.578
18904.000			21.468			-3.578
19004.000			21.465			-3.577
19105.000			21.462			-3.577
19204.000			21.459			-3.576
19303.000			21.456			-3.576
19405.000			21.452			-3.575
19504.000			21.449			-3.575
19604.000			21.445			-3.574
19705.000			21.442			-3.574
19804.000			21.439			-3.573
19904.000			21.435			-3.573
20004.000			21.433			-3.572
20104.000			21.431			-3.572
20204.000			21.428			-3.571
20305.000			21.422			-3.570
20404.000			21.420			-3.570
20503.000			21.417			-3.570
20605.000			21.415			-3.569
20704.000			21.413			-3.569
20804.000			21.411			-3.569
20905.000			21.409			-3.568
21004.000			21.403			-3.567
21104.000			21.401			-3.567
21204.000			21.398			-3.566
21304.000			21.396			-3.566
21404.000			21.395			-3.566
21505.000			21.391			-3.565
21604.000			21.388			-3.565
21703.000			21.384			-3.564
21805.000			21.382			-3.564
21904.000			21.379			-3.563
22005.000			21.376			-3.563
22104.000			21.374			-3.562
22204.000			21.371			-3.562
22305.000			21.369			-3.561
22403.000			21.366			-3.561
22504.000			21.360			-3.560
22605.000			21.357			-3.560
22704.000			21.355			-3.559
22804.000			21.353			-3.559
22905.000			21.351			-3.558
23004.000			21.349			-3.558
23103.000			21.346			-3.558
23205.000			21.340			-3.557
23304.000			21.339			-3.557
23404.000			21.337			-3.556
23505.000			21.335			-3.556
23603.000			21.332			-3.555
23704.000			21.330			-3.555
23805.000			21.328			-3.555
23904.000			21.322			-3.554
24004.000			21.321			-3.553
24105.000			21.319			-3.553
24204.000			21.315			-3.553
24303.000			21.314			-3.552
24405.000			21.312			-3.552
24504.000			21.310			-3.552
24604.000			21.305			-3.551
24705.000			21.303			-3.550
24804.000			21.300			-3.550
24904.000			21.299			-3.550
25003.000			21.297			-3.549
25104.000			21.294			-3.549
25205.000			21.292			-3.549
25304.000			21.290			-3.548
25404.000			21.286			-3.548
25504.000			21.283			-3.547
25604.000			21.281			-3.547
25704.000			21.278			-3.546
25805.000			21.277			-3.546
25904.000			21.274			-3.546
26004.000			21.272			-3.545
26105.000			21.266			-3.544
26203.000			21.264			-3.544
26304.000			21.263			-3.544
26405.000			21.261			-3.543
26504.000			21.258			-3.543
26604.000			21.256			-3.543
26705.000			21.255			-3.542
26804.000			21.249			-3.542
26903.000			21.248			-3.541
27005.000			21.246			-3.541
27104.000			21.244			-3.541
27204.000			21.242			-3.540
27305.000			21.238			-3.540
27404.000			21.237			-3.539
27504.000			21.233			-3.539
27604.000			21.231			-3.538
27704.000			21.229			-3.538
27804.000			21.226			-3.538
27905.000			21.224			-3.537
28004.000			21.222			-3.537
28103.000			21.220			-3.537
28205.000			21.216			-3.536
28304.000			21.214			-3.536
28405.000			21.212			-3.535
28504.000			21.210			-3.535
28604.000			21.209			-3.535
28705.000			21.207			-3.534
28803.000			21.205			-3.534
28904.000			21.203			-3.534
29005.000			21.199			-3.533
29104.000			21.198			-3.533
29204.000			21.196			-3.533
29305.000			21.194			-3.532
29404.000			21.193			-3.532
29503.000			21.192			-3.532
29605.000			21.190			-3.532
29704.000			21.186			-3.531
29804.000			21.185			-3.531
29905.000			21.183			-3.531
30004.000			21.182			-3.530
30104.000			21.180			-3.530
30204.000			21.178			-3.530
30304.000			21.176			-3.529
30404.000			21.172			-3.529
30505.000			21.170			-3.528
30604.000			21.168			-3.528
30703.000			21.168			-3.528
30805.000			21.166			-3.528
30904.000			21.164			-3.527
31004.000			21.163			-3.527
31105.000			21.159			-3.526
31204.000			21.158			-3.526
31304.000			21.156			-3.526
31403.000			21.154			-3.526
31504.000			21.152			-3.525
31605.000			21.151			-3.525
31704.000			21.149			-3.525
31804.000			21.147			-3.525
31905.000			21.143			-3.524
32004.000			21.141			-3.524
32103.000			21.140			-3.523
32205.000			21.139			-3.523
32304.000			21.138			-3.523
32404.000			21.136			-3.523
32505.000			21.135			-3.522
32603.000			21.130			-3.522
32704.000			21.130			-3.522
32805.000			21.127			-3.521
32904.000			21.126			-3.521
33004.000			21.125			-3.521
33105.000			21.123			-3.520
33204.000			21.122			-3.520
33303.000			21.117			-3.520
33405.000			21.115			-3.519
33504.000			21.114			-3.519
33604.000			21.113			-3.519
33705.000			21.111			-3.519
33803.000			21.109			-3.518
33904.000			21.108			-3.518
34005.000			21.105			-3.517
34104.000			21.102			-3.517
34204.000			21.100			-3.517
34305.000			21.100			-3.517
34404.000			21.097			-3.516
34503.000			21.096			-3.516
34605.000			21.094			-3.516
34704.000			21.093			-3.515
34805.000			21.089			-3.515
34904.000			21.087			-3.514
35004.000			21.085			-3.514
35105.000			21.083			-3.514
35203.000			21.082			-3.514
35304.000			21.080			-3.513
35405.000			21.079			-3.513
35504.000			21.076			-3.513
35604.000			21.073			-3.512
35704.000			21.071			-3.512
35804.000			21.070			-3.512
35904.000			21.068			-3.511
36005.000			21.066			-3.511
36104.000			21.064			-3.511
36204.000			21.062			-3.510
36305.000			21.059			-3.510
36403.000			21.059			-3.510
36504.000			21.056			-3.509
36605.000			21.054			-3.509
36704.000			21.053			-3.509
36804.000			21.051			-3.509
36905.000			21.049			-3.508
37004.000			21.047			-3.508
37103.000			21.045			-3.508
37205.000			21.044			-3.507
37304.000			21.042			-3.507
37404.000			21.040			-3.507
37505.000			21.039			-3.507
37603.000			21.038			-3.506
37704.000			21.034			-3.506
37805.000			21.034			-3.506
37904.000			21.034			-3.506
38005.000			21.033			-3.505
38104.000			21.032			-3.505
38204.000			21.029			-3.505
38304.000			21.028			-3.505
38404.000			21.025			-3.504
38504.000			21.025			-3.504
38605.000			21.024			-3.504
38704.000			21.023			-3.504
38803.000			21.022			-3.504
38905.000			21.019			-3.503
39004.000			21.018			-3.503
39104.000			21.016			-3.503
39205.000			21.014			-3.502
39304.000			21.014			-3.502
39404.000			21.012			-3.502
39504.000			21.011			-3.502
39604.000			21.009			-3.502
39704.000			21.008			-3.501
39805.000			21.005			-3.501
39904.000			21.004			-3.501
40004.000			21.003			-3.501
40105.000			21.002			-3.500
40203.000			21.000			-3.500
40304.000			21.000			-3.500
40405.000			20.998			-3.500
40504.000			20.996			-3.499
40604.000			20.994			-3.499
40704.000			20.992			-3.499
40804.000			20.991			-3.499
40904.000			20.991			-3.498
41004.000			20.989			-3.498
41104.000			20.988			-3.498
41205.000			20.987			-3.498
41304.000			20.984			-3.497
41403.000			20.983			-3.497
41505.000			20.982			-3.497
41604.000			20.980			-3.497
41704.000			20.980			-3.497
41805.000			20.979			-3.497
41904.000			20.977			-3.496
42004.000			20.973			-3.495
42104.000			20.972			-3.495
42204.000			20.971			-3.495
42304.000			20.969			-3.495
42405.000			20.968			-3.495
42504.000			20.967			-3.495
42604.000			20.966			-3.494
42705.000			20.963			-3.494
42803.000			20.962			-3.494
42904.000			20.960			-3.493
43005.000			20.959			-3.493
43104.000			20.958			-3.493
43204.000			20.957			-3.493
43305.000			20.955			-3.493
43404.000			20.953			-3.492
43503.000			20.951			-3.492
43605.000			20.949			-3.492
43704.000			20.948			-3.491
43804.000			20.947			-3.491
43905.000			20.945			-3.491
44003.000			20.944			-3.491
44104.000			20.943			-3.491
44205.000			20.940			-3.490
44304.000			20.939			-3.490
44405.000			20.936			-3.489
44504.000			20.934			-3.489
44604.000			20.934			-3.489
44704.000			20.933			-3.489
44804.000			20.931			-3.489
44904.000			20.929			-3.488
45005.000			20.926			-3.488
45104.000			20.927			-3.488
45204.000			20.926			-3.488
45305.000			20.924			-3.487
45403.000			20.922			-3.487
45504.000			20.921			-3.487
45605.000			20.918			-3.486
45704.000			20.917			-3.486
45804.000			20.916			-3.486
45905.000			20.914			-3.486
46004.000			20.913			-3.485
46103.000			20.912			-3.485
46205.000			20.910			-3.485
46304.000			20.910			-3.485
46404.000			20.906			-3.484
46505.000			20.905			-3.484
46604.000			20.904			-3.484
46704.000			20.903			-3.484
46804.000			20.902			-3.484
46904.000			20.900			-3.483
47004.000			20.899			-3.483
47105.000			20.897			-3.483
47204.000			20.897			-3.483
47303.000			20.895			-3.483
47405.000			20.894			-3.482
47504.000			20.894			-3.482
47605.000			20.893			-3.482
47704.000			20.892			-3.482
47804.000			20.890			-3.482
47905.000			20.888			-3.481
48004.000			20.887			-3.481
48104.000			20.886			-3.481
48204.000			20.885			-3.481
48304.000			20.884			-3.481
48404.000			20.883			-3.480
48505.000			20.879			-3.480
48604.000			20.879			-3.480
48704.000			20.877			-3.480
48805.000			20.876			-3.479
48903.000			20.875			-3.479
49004.000			20.874			-3.479
49105.000			20.873			-3.479
49204.000			20.871			-3.478
49304.000			20.870			-3.478
49405.000			20.869			-3.478
49504.000			20.868			-3.478
49603.000			20.867			-3.478
49705.000			20.865			-3.478
49804.000			20.864			-3.477
49904.000			20.864			-3.477
50005.000			20.862			-3.477
50104.000			20.862			-3.477
50204.000			20.861			-3.477
50304.000			20.859			-3.476
50404.000			20.858			-3.476
50504.000			20.858			-3.476
50604.000			20.857			-3.476
50704.000			20.853			-3.476
50803.000			20.852			-3.475
50904.000			20.851			-3.475
51004.000			20.850			-3.475
51105.000			20.849			-3.475
51204.000			20.847			-3.475
51304.000			20.847			-3.475
51405.000			20.846			-3.474
51503.000			20.846			-3.474
51604.000			20.844			-3.474
51705.000			20.843			-3.474
51804.000			20.842			-3.474
51904.000			20.840			-3.473
52005.000			20.839			-3.473
52104.000			20.839			-3.473
52203.000			20.837			-3.473
52305.000			20.836			-3.473
52404.000			20.835			-3.472
52504.000			20.833			-3.472
52605.000			20.832			-3.472
52704.000			20.832			-3.472
52804.000			20.831			-3.472
52904.000			20.828			-3.471
53004.000			20.828			-3.471
53104.000			20.828			-3.471
53205.000			20.826			-3.471
53304.000			20.824			-3.471
53403.000			20.823			-3.470
53505.000			20.822			-3.470
53604.000			20.821			-3.470
53704.000			20.821			-3.470
53805.000			20.820			-3.470
53904.000			20.819			-3.470
54005.000			20.818			-3.470
54103.000			20.817			-3.470
54204.000			20.816			-3.469
54305.000			20.815			-3.469
54404.000			20.814			-3.469
54504.000			20.813			-3.469
54605.000			20.812			-3.469
54704.000			20.811			-3.468
54803.000			20.810			-3.468
54905.000			20.809			-3.468
55004.000			20.807			-3.468
55104.000			20.805			-3.468
55205.000			20.806			-3.468
55304.000			20.803			-3.467
55404.000			20.801			-3.467
55505.000			20.801			-3.467
55604.000			20.800			-3.467
55704.000			20.797			-3.466
55805.000			20.796			-3.466
55904.000			20.795			-3.466
56003.000			20.794			-3.466
56105.000			20.793			-3.465
56204.000			20.792			-3.465
56304.000			20.790			-3.465
56405.000			20.789			-3.465
56504.000			20.788			-3.465
56604.000			20.787			-3.465
56704.000			20.787			-3.464
56804.000			20.785			-3.464
56904.000			20.785			-3.464
57004.000			20.784			-3.464
57104.000			20.782			-3.464
57205.000			20.781			-3.463
57304.000			20.780			-3.463
57403.000			20.779			-3.463
57505.000			20.778			-3.463
57604.000			20.777			-3.463
57704.000			20.775			-3.463
57805.000			20.775			-3.462
57904.000			20.774			-3.462
58004.000			20.772			-3.462
58104.000			20.772			-3.462
58204.000			20.771			-3.462
58304.000			20.770			-3.462
58405.000			20.769			-3.461
58504.000			20.768			-3.461
58604.000			20.767			-3.461
58705.000			20.765			-3.461
58803.000			20.764			-3.461
58904.000			20.763			-3.461
59005.000			20.762			-3.460
59104.000			20.762			-3.460
59204.000			20.761			-3.460
59305.000			20.760			-3.460
59404.000			20.758			-3.460
59503.000			20.757			-3.460
59605.000			20.757			-3.459
59704.000			20.755			-3.459
59804.000			20.754			-3.459
59905.000			20.751			-3.459
60004.000			20.750			-3.458
60104.000			20.751			-3.458
60203.000			20.749			-3.458
60304.000			20.748			-3.458
60405.000			20.746			-3.458
60504.000			20.745			-3.458
60604.000			20.744			-3.457
60705.000			20.744			-3.457
60804.000			20.743			-3.457
60903.000			20.742			-3.457
61005.000			20.742			-3.457
61104.000			20.741			-3.457
61204.000			20.740			-3.457
61305.000			20.740			-3.457
61403.000			20.738			-3.456
61504.000			20.738			-3.456
61605.000			20.735			-3.456
61704.000			20.734			-3.456
61804.000			20.733			-3.455
61905.000			20.732			-3.455
62004.000			20.731			-3.455
62103.000			20.731			-3.455
62205.000			20.729			-3.455
62304.000			20.727			-3.455
62404.000			20.727			-3.454
62505.000			20.726			-3.454
62604.000			20.726			-3.454
62704.000			20.725			-3.454
62804.000			20.724			-3.454
62904.000			20.722			-3.454
63004.000			20.721			-3.454
63105.000			20.721			-3.454
63204.000			20.720			-3.453
63303.000			20.719			-3.453
63405.000			20.717			-3.453
63504.000			20.716			-3.453
63605.000			20.715			-3.453
63704.000			20.716			-3.453
63804.000			20.714			-3.452
63905.000			20.713			-3.452
64003.000			20.712			-3.452
64104.000			20.710			-3.452
64205.000			20.710			-3.452
64304.000			20.710			-3.452
64404.000			20.708			-3.451
64505.000			20.706			-3.451
64604.000			20.706			-3.451
64703.000			20.705			-3.451
64805.000			20.703			-3.450
64904.000			20.702			-3.450
65004.000			20.702			-3.450
65105.000			20.701			-3.450
65204.000			20.700			-3.450
65304.000			20.697			-3.449
65404.000			20.697			-3.449
65504.000			20.697			-3.449
65604.000			20.696			-3.449
65705.000			20.694			-3.449
65804.000			20.693			-3.449
65904.000			20.692			-3.449
66005.000			20.690			-3.448
66103.000			20.690			-3.448
66204.000			20.689			-3.448
66305.000			20.687			-3.448
66404.000			20.687			-3.448
66504.000			20.686			-3.448
66604.000			20.685			-3.447
66704.000			20.683			-3.447
66803.000			20.682			-3.447
66904.000			20.682			-3.447
67004.000			20.681			-3.447
67105.000			20.680			-3.447
67204.000			20.680			-3.447
67304.000			20.679			-3.446
67405.000			20.677			-3.446
67503.000			20.676			-3.446
67604.000			20.675			-3.446
67705.000			20.675			-3.446
67804.000			20.674			-3.446
67904.000			20.673			-3.446
68005.000			20.672			-3.445
68104.000			20.671			-3.445
68203.000			20.670			-3.445
68305.000			20.669			-3.445
68404.000			20.667			-3.445
68504.000			20.666			-3.444
68605.000			20.666			-3.444
68704.000			20.665			-3.444
68804.000			20.664			-3.444
68904.000			20.663			-3.444
69004.000			20.661			-3.444
69104.000			20.661			-3.443
69205.000			20.660			-3.443
69304.000			20.659			-3.443
69404.000			20.658			-3.443
69505.000			20.657			-3.443
69603.000			20.655			-3.442
69704.000			20.654			-3.442
69805.000			20.653			-3.442
69904.000			20.652			-3.442
70005.000			20.652			-3.442
70104.000			20.651			-3.442
70204.000			20.650			-3.442
70304.000			20.649			-3.441
70404.000			20.648			-3.441
70504.000			20.648			-3.441
70605.000			20.647			-3.441
70704.000			20.645			-3.441
70804.000			20.644			-3.441
70905.000			20.644			-3.441
71003.000			20.643			-3.441
71104.000			20.642			-3.440
71205.000			20.640			-3.440
71304.000			20.639			-3.440
71404.000			20.639			-3.440
71504.000			20.638			-3.440
71604.000			20.637			-3.439
71704.000			20.635			-3.439
71805.000			20.634			-3.439
71904.000			20.633			-3.439
72004.000			20.633			-3.439
72105.000			20.633			-3.439
72203.000			20.632			-3.439
72304.000			20.630			-3.438
72405.000			20.630			-3.438
72504.000			20.630			-3.438
72604.000			20.629			-3.438
72705.000			20.628			-3.438
72804.000			20.627			-3.438
72903.000			20.625			-3.438
73005.000			20.625			-3.437
73104.000			20.624			-3.437
73205.000			20.623			-3.437
73304.000			20.623			-3.437
73404.000			20.622			-3.437
73505.000			20.621			-3.437
73603.000			20.620			-3.437
73704.000			20.618			-3.436
73805.000			20.618			-3.436
73904.000			20.617			-3.436
74004.000			20.616			-3.436
74105.000			20.615			-3.436
74204.000			20.614			-3.436
74303.000			20.614			-3.436
74405.000			20.612			-3.435
74504.000			20.611			-3.435
74604.000			20.612			-3.435
74705.000			20.610			-3.435
74803.000			20.609			-3.435
74904.000			20.609			-3.435
75005.000			20.609			-3.435
75104.000			20.608			-3.435
75204.000			20.606			-3.434
75305.000			20.606			-3.434
75404.000			20.604			-3.434
75503.000			20.603			-3.434
75605.000			20.603			-3.434
75704.000			20.602			-3.434
75804.000			20.601			-3.433
75905.000			20.601			-3.433
76004.000			20.600			-3.433
76104.000			20.599			-3.433
76203.000			20.597			-3.433
76304.000			20.597			-3.433
76405.000			20.597			-3.433
76504.000			20.596			-3.433
76604.000			20.594			-3.432
76705.000			20.593			-3.432
76804.000			20.593			-3.432
76903.000			20.592			-3.432
77005.000			20.591			-3.432
77104.000			20.591			-3.432
77204.000			20.590			-3.432
77305.000			20.589			-3.431
77404.000			20.588			-3.431
77504.000			20.588			-3.431
77605.000			20.586			-3.431
77704.000			20.586			-3.431
77803.000			20.584			-3.431
77905.000			20.583			-3.431
78004.000			20.583			-3.431
78104.000			20.583			-3.431
78205.000			20.582			-3.430
78304.000			20.580			-3.430
78404.000			20.580			-3.430
78504.000			20.580			-3.430
78604.000			20.579			-3.430
78704.000			20.578			-3.430
78805.000			20.576			-3.429
78904.000			20.576			-3.429
79004.000			20.575			-3.429
79105.000			20.575			-3.429
79203.000			20.573			-3.429
79304.000			20.573			-3.429
79405.000			20.573			-3.429
79504.000			20.571			-3.429
79605.000			20.571			-3.429
79704.000			20.570			-3.428
79804.000			20.570			-3.428
79904.000			20.568			-3.428
80004.000			20.568			-3.428
80104.000			20.567			-3.428
80205.000			20.565			-3.428
80304.000			20.565			-3.427
80404.000			20.565			-3.428
80505.000			20.563			-3.427
80603.000			20.563			-3.427
80704.000			20.562			-3.427
80805.000			20.562			-3.427
80904.000			20.561			-3.427
81004.000			20.560			-3.427
81104.000			20.558			-3.426
81204.000			20.558			-3.426
81304.000			20.557			-3.426
81405.000			20.557			-3.426
81504.000			20.557			-3.426
81604.000			20.555			-3.426
81705.000			20.555			-3.426
81803.000			20.555			-3.426
81904.000			20.552			-3.425
82005.000			20.552			-3.425
82104.000			20.551			-3.425
82204.000			20.552			-3.425
82305.000			20.551			-3.425
82404.000			20.549			-3.425
82503.000			20.549			-3.425
82605.000			20.547			-3.425
82704.000			20.547			-3.424
82805.000			20.546			-3.424
82904.000			20.545			-3.424
83004.000			20.545			-3.424
83105.000			20.544			-3.424
83203.000			20.543			-3.424
83304.000			20.542			-3.424
83405.000			20.540			-3.423
83504.000			20.541			-3.423
83604.000			20.540			-3.423
83705.000			20.539			-3.423
83804.000			20.539			-3.423
83903.000			20.538			-3.423
84005.000			20.537			-3.423
84104.000			20.537			-3.423
84204.000			20.536			-3.423
84305.000			20.535			-3.422
84404.000			20.534			-3.422
84504.000			20.534			-3.422
84604.000			20.534			-3.422
84704.000			20.534			-3.422
84804.000			20.532			-3.422
84905.000			20.531			-3.422
85004.000			20.530			-3.422
85104.000			20.529			-3.422
85205.000			20.529			-3.422
85303.000			20.529			-3.421
85404.000			20.529			-3.421
85505.000			20.529			-3.421
85604.000			20.526			-3.421
85704.000			20.525			-3.421
85804.000			20.524			-3.421
85904.000			20.524			-3.421
86003.000			20.523			-3.421
86104.000			20.523			-3.421
86204.000			20.522			-3.420
86305.000			20.521			-3.420
86404.000			20.520			-3.420
86503.000			20.519			-3.420
86605.000			20.519			-3.420
86704.000			20.519			-3.420
86804.000			20.518			-3.420
86905.000			20.516			-3.419
87004.000			20.515			-3.419
87104.000			20.515			-3.419
87204.000			20.514			-3.419
87304.000			20.514			-3.419
87403.000			20.512			-3.419
87505.000			20.511			-3.419
87604.000			20.512			-3.419
87704.000			20.512			-3.419
87805.000			20.512			-3.419
87903.000			20.510			-3.418
88004.000			20.509			-3.418
88105.000			20.509			-3.418
88204.000			20.509			-3.418
88304.000			20.509			-3.418
88405.000			20.508			-3.418
88504.000			20.506			-3.418
88603.000			20.507			-3.418
88705.000			20.507			-3.418
88804.000			20.505			-3.418
88904.000			20.505			-3.417
89005.000			20.504			-3.417
89104.000			20.504			-3.417
89205.000			20.502			-3.417
89303.000			20.500			-3.417
89404.000			20.499			-3.416
89504.000			20.499			-3.417
89604.000			20.500			-3.417
89704.000			20.498			-3.416
89805.000			20.498			-3.416
89904.000			20.496			-3.416
90004.000			20.497			-3.416
90105.000			20.496			-3.416
90203.000			20.495			-3.416
90304.000			20.494			-3.416
90405.000			20.494			-3.416
90504.000			20.494			-3.416
90604.000			20.493			-3.415
90705.000			20.492			-3.415
90804.000			20.491			-3.415
90903.000			20.490			-3.415
91005.000			20.490			-3.415
91104.000			20.488			-3.415
91204.000			20.487			-3.415
91305.000			20.487			-3.414
91404.000			20.486			-3.414
91504.000			20.486			-3.414
91604.000			20.485			-3.414
91704.000			20.484			-3.414
91804.000			20.484			-3.414
91905.000			20.482			-3.414
92004.000			20.482			-3.414
92104.000			20.481			-3.413
92205.000			20.480			-3.413
92303.000			20.480			-3.413
92405.000			20.480			-3.413
92504.000			20.479			-3.413
92604.000			20.478			-3.413
92705.000			20.477			-3.413
92804.000			20.476			-3.413
92904.000			20.476			-3.413
93004.000			20.475			-3.413
93104.000			20.475			-3.412
93204.000			20.474			-3.412
93305.000			20.473			-3.412
93404.000			20.472			-3.412
93504.000			20.471			-3.412
93605.000			20.471			-3.412
93703.000			20.471			-3.412
93804.000			20.469			-3.412
93905.000			20.469			-3.411
94004.000			20.468			-3.411
94104.000			20.468			-3.411
94205.000			20.468			-3.411
94304.000			20.467			-3.411
94403.000			20.467			-3.411
94505.000			20.467			-3.411
94604.000			20.465			-3.411
94704.000			20.464			-3.411
94805.000			20.463			-3.410
94904.000			20.463			-3.411
95004.000			20.462			-3.410
95104.000			20.460			-3.410
95204.000			20.460			-3.410
95304.000			20.461			-3.410
95404.000			20.462			-3.410
95504.000			20.461			-3.410
95605.000			20.459			-3.410
95704.000			20.459			-3.410
95803.000			20.459			-3.410
95905.000			20.458			-3.410
96004.000			20.457			-3.410
96104.000			20.456			-3.409
96205.000			20.456			-3.409
96304.000			20.456			-3.409
96404.000			20.456			-3.409
96504.000			20.455			-3.409
96604.000			20.455			-3.409
96704.000			20.454			-3.409
96805.000			20.453			-3.409
96904.000			20.453			-3.409
97004.000			20.452			-3.409
97105.000			20.452			-3.409
97203.000			20.451			-3.409
97304.000			20.451			-3.408
97405.000			20.451			-3.408
97504.000			20.450			-3.408
97604.000			20.450			-3.408
97705.000			20.449			-3.408
97804.000			20.448			-3.408
97903.000			20.448			-3.408
98005.000			20.447			-3.408
98104.000			20.445			-3.408
98204.000			20.446			-3.408
98305.000			20.446			-3.408
98404.000			20.444			-3.407
98504.000			20.443			-3.407
98603.000			20.442			-3.407
98704.000			20.443			-3.407
98805.000			20.443			-3.407
98904.000			20.442			-3.407
99004.000			20.440			-3.407
99105.000			20.440			-3.407
99204.000			20.439			-3.406
99303.000			20.438			-3.406
99405.000			20.437			-3.406
99504.000			20.437			-3.406
99604.000			20.436			-3.406
99705.000			20.436			-3.406
99804.000			20.436			-3.406
99904.000			20.434			-3.406
100004.000			20.433			-3.405
100104.000			20.433			-3.405
100204.000			20.433			-3.405
100305.000			20.432			-3.405
100404.000			20.431			-3.405
100504.000			20.430			-3.405
100605.000			20.430			-3.405
100703.000			20.429			-3.405
100804.000			20.428			-3.405
100905.000			20.427			-3.404
101004.000			20.427			-3.404
101104.000			20.427			-3.404
101205.000			20.426			-3.404
101304.000			20.426			-3.404
101403.000			20.425			-3.404
101505.000			20.425			-3.404
101604.000			20.424			-3.404
101704.000			20.423			-3.404
101805.000			20.424			-3.404
101904.000			20.423			-3.404
102005.000			20.422			-3.404
102103.000			20.421			-3.404
102204.000			20.421			-3.403
102305.000			20.420			-3.403
102404.000			20.419			-3.403
102504.000			20.418			-3.403
102605.000			20.419			-3.403
102704.000			20.419			-3.403
102803.000			20.418			-3.403
102905.000			20.418			-3.403
103004.000			20.416			-3.403
103104.000			20.417			-3.403
103205.000			20.416			-3.403
103304.000			20.415			-3.402
103404.000			20.413			-3.402
103504.000			20.414			-3.402
103604.000			20.413			-3.402
103704.000			20.412			-3.402
103805.000			20.412			-3.402
103904.000			20.412			-3.402
104004.000			20.411			-3.402
104105.000			20.410			-3.402
104203.000			20.409			-3.401
104304.000			20.408			-3.401
104405.000			20.408			-3.401
104504.000			20.407			-3.401
104604.000			20.406			-3.401
104704.000			20.405			-3.401
104804.000			20.405			-3.401
104903.000			20.404			-3.401
105005.000			20.403			-3.400
105104.000			20.402			-3.400
105205.000			20.402			-3.400
105304.000			20.401			-3.400
105403.000			20.400			-3.400
105505.000			20.400			-3.400
105603.000			20.399			-3.400
105704.000			20.397			-3.400
105805.000			20.398			-3.400
105904.000			20.396			-3.399
106004.000			20.396			-3.399
106105.000			20.396			-3.399
106204.000			20.396			-3.399
106303.000			20.396			-3.399
106405.000			20.395			-3.399
106504.000			20.394			-3.399
106604.000			20.392			-3.399
106705.000			20.392			-3.399
106804.000			20.391			-3.399
106904.000			20.391			-3.398
107004.000			20.390			-3.398
107104.000			20.390			-3.398
107204.000			20.388			-3.398
107305.000			20.388			-3.398
107404.000			20.388			-3.398
107504.000			20.386			-3.398
107605.000			20.387			-3.398
107703.000			20.386			-3.398
107804.000			20.385			-3.398
107905.000			20.385			-3.397
108004.000			20.383			-3.397
108104.000			20.382			-3.397
108204.000			20.382			-3.397
108304.000			20.382			-3.397
108405.000			20.381			-3.397
108504.000			20.382			-3.397
108603.000			20.381			-3.397
108705.000			20.379			-3.396
108804.000			20.379			-3.397
108904.000			20.377			-3.396
109005.000			20.377			-3.396
109104.000			20.377			-3.396
109204.000			20.376			-3.396
109304.000			20.376			-3.396
109404.000			20.375			-3.396
109504.000			20.374			-3.396
109605.000			20.374			-3.396
109704.000			20.374			-3.396
109804.000			20.373			-3.395
109905.000			20.372			-3.395
110003.000			20.372			-3.395
110104.000			20.371			-3.395
110205.000			20.371			-3.395
110304.000			20.370			-3.395
110404.000			20.370			-3.395
110505.000			20.369			-3.395
110604.000			20.368			-3.395
110703.000			20.368			-3.395
110805.000			20.367			-3.395
110904.000			20.367			-3.394
111004.000			20.367			-3.394
111105.000			20.366			-3.394
111204.000			20.365			-3.394
111304.000			20.364			-3.394
111403.000			20.363			-3.394
111504.000			20.363			-3.394
111605.000			20.362			-3.394
111704.000			20.361			-3.394
111804.000			20.360			-3.393
111904.000			20.360			-3.393
112004.000			20.359			-3.393
112103.000			20.360			-3.393
112205.000			20.360			-3.393
112304.000			20.360			-3.393
112404.000			20.358			-3.393
112505.000			20.358			-3.393
112604.000			20.356			-3.393
112704.000			20.356			-3.393
112804.000			20.356			-3.393
112904.000			20.355			-3.393
113004.000			20.355			-3.393
113105.000			20.355			-3.392
113204.000			20.354			-3.392
113303.000			20.353			-3.392
113405.000			20.352			-3.392
113504.000			20.352			-3.392
113604.000			20.352			-3.392
113705.000			20.351			-3.392
113804.000			20.351			-3.392
113904.000			20.351			-3.392
114004.000			20.349			-3.392
114104.000			20.348			-3.391
114203.000			20.348			-3.391
114305.000			20.348			-3.391
114404.000			20.347			-3.391
114504.000			20.347			-3.391
114605.000			20.346			-3.391
114704.000			20.345			-3.391
114805.000			20.345			-3.391
114903.000			20.344			-3.391
115004.000			20.344			-3.391
115105.000			20.343			-3.391
115204.000			20.342			-3.390
115304.000			20.341			-3.390
115404.000			20.342			-3.390
115504.000			20.340			-3.390
115603.000			20.341			-3.390
115705.000			20.340			-3.390
115804.000			20.339			-3.390
115904.000			20.339			-3.390
116005.000			20.338			-3.390
116104.000			20.337			-3.390
116204.000			20.337			-3.390
116304.000			20.337			-3.390
116404.000			20.336			-3.389
116504.000			20.336			-3.389
116605.000			20.335			-3.389
116704.000			20.334			-3.389
116804.000			20.334			-3.389
116905.000			20.334			-3.389
117003.000			20.334			-3.389
117104.000			20.333			-3.389
117205.000			20.332			-3.389
117304.000			20.331			-3.388
117404.000			20.331			-3.389
117505.000			20.331			-3.389
117604.000			20.330			-3.388
117703.000			20.329			-3.388
117805.000			20.328			-3.388
117904.000			20.328			-3.388
118005.000			20.329			-3.388
118104.000			20.328			-3.388
118204.000			20.327			-3.388
118305.000			20.326			-3.388
118403.000			20.325			-3.388
118504.000			20.325			-3.387
118605.000			20.324			-3.387
118704.000			20.324			-3.387
118804.000			20.323			-3.387
118905.000			20.323			-3.387
119004.000			20.323			-3.387
119103.000			20.322			-3.387
119205.000			20.321			-3.387
119304.000			20.320			-3.387
119404.000			20.320			-3.387
119505.000			20.319			-3.387
119604.000			20.319			-3.386
119704.000			20.318			-3.386
119804.000			20.319			-3.386
119904.000			20.318			-3.386
120004.000			20.317			-3.386
120105.000			20.316			-3.386
120204.000			20.315			-3.386
120304.000			20.316			-3.386
120405.000			20.315			-3.386
120503.000			20.314			-3.386
120604.000			20.314			-3.386
120705.000			20.314			-3.386
120804.000			20.314			-3.386
120904.000			20.312			-3.385
121004.000			20.312			-3.385
121104.000			20.312			-3.385
121203.000			20.309			-3.385
121304.000			20.310			-3.385
121404.000			20.310			-3.385
121505.000			20.309			-3.385
121604.000			20.310			-3.385
121704.000			20.310			-3.385
121805.000			20.308			-3.385
121903.000			20.308			-3.385
122004.000			20.308			-3.385
122105.000			20.307			-3.384
122204.000			20.306			-3.384
122304.000			20.306			-3.384
122405.000			20.306			-3.384
122504.000			20.306			-3.384
122603.000			20.304			-3.384
122705.000			20.304			-3.384
122804.000			20.304			-3.384
122904.000			20.303			-3.384
123005.000			20.302			-3.384
123104.000			20.302			-3.384
123204.000			20.302			-3.384
123304.000			20.303			-3.384
123404.000			20.302			-3.384
123504.000			20.300			-3.383
123605.000			20.300			-3.383
123704.000			20.299			-3.383
123804.000			20.299			-3.383
123905.000			20.300			-3.383
124003.000			20.298			-3.383
124104.000			20.297			-3.383
124205.000			20.297			-3.383
124304.000			20.298			-3.383
124405.000			20.296			-3.383
124504.000			20.295			-3.383
124604.000			20.295			-3.382
124704.000			20.294			-3.382
124804.000			20.293			-3.382
124904.000			20.294			-3.382
125005.000			20.293			-3.382
125104.000			20.293			-3.382
125204.000			20.293			-3.382
125305.000			20.293			-3.382
125403.000			20.292			-3.382
125504.000			20.291			-3.382
125605.000			20.291			-3.382
125704.000			20.289			-3.382
125804.000			20.289			-3.381
125905.000			20.289			-3.381
126004.000			20.289			-3.381
126103.000			20.288			-3.381
126205.000			20.286			-3.381
126304.000			20.286			-3.381
126404.000			20.287			-3.381
126505.000			20.286			-3.381
126604.000			20.286			-3.381
126704.000			20.287			-3.381
126804.000			20.285			-3.381
126904.000			20.283			-3.380
127003.000			20.282			-3.380
127105.000			20.282			-3.380
127204.000			20.283			-3.381
127304.000			20.283			-3.380
127405.000			20.281			-3.380
127504.000			20.281			-3.380
127605.000			20.280			-3.380
127703.000			20.279			-3.380
127804.000			20.279			-3.380
127905.000			20.278			-3.380
128004.000			20.278			-3.380
128104.000			20.279			-3.380
128205.000			20.278			-3.380
128304.000			20.276			-3.379
128403.000			20.276			-3.379
128505.000			20.276			-3.379
128604.000			20.275			-3.379
128704.000			20.275			-3.379
128805.000			20.275			-3.379
128904.000			20.274			-3.379
129004.000			20.273			-3.379
129104.000			20.273			-3.379
129204.000			20.272			-3.379
129304.000			20.272			-3.379
129405.000			20.272			-3.379
129504.000			20.270			-3.378
129604.000			20.271			-3.378
129705.000			20.270			-3.378
129803.000			20.269			-3.378
129904.000			20.269			-3.378
130004.000			20.268			-3.378
130104.000			20.267			-3.378
130204.000			20.266			-3.378
130305.000			20.267			-3.378
130404.000			20.268			-3.378
130504.000			20.267			-3.378
130605.000			20.265			-3.378
130703.000			20.265			-3.377
130805.000			20.265			-3.377
130904.000			20.265			-3.377
131004.000			20.264			-3.377
131105.000			20.263			-3.377
131204.000			20.262			-3.377
131304.000			20.261			-3.377
131404.000			20.261			-3.377
131504.000			20.261			-3.377
131604.000			20.261			-3.377
131705.000			20.260			-3.377
131804.000			20.260			-3.377
131904.000			20.260			-3.377
132005.000			20.259			-3.377
132103.000			20.258			-3.376
132204.000			20.257			-3.376
132305.000			20.257			-3.376
132404.000			20.257			-3.376
132504.000			20.257			-3.376
132605.000			20.256			-3.376
132704.000			20.256			-3.376
132804.000			20.255			-3.376
132905.000			20.254			-3.376
133003.000			20.254			-3.376
133104.000			20.254			-3.376
133205.000			20.253			-3.376
133304.000			20.253			-3.376
133404.000			20.252			-3.375
133505.000			20.253			-3.375
133604.000			20.252			-3.375
133704.000			20.251			-3.375
133805.000			20.251			-3.375
133903.000			20.251			-3.375
134005.000			20.251			-3.375
134104.000			20.250			-3.375
134204.000			20.248			-3.375
134305.000			20.248			-3.375
134404.000			20.248			-3.375
134504.000			20.246			-3.374
134604.000			20.246			-3.374
134704.000			20.246			-3.374
134803.000			20.247			-3.374
134905.000			20.246			-3.374
135004.000			20.246			-3.374
135104.000			20.245			-3.374
135205.000			20.244			-3.374
135304.000			20.244			-3.374
135404.000			20.244			-3.374
135504.000			20.243			-3.374
135604.000			20.243			-3.374
135704.000			20.243			-3.374
135805.000			20.242			-3.374
135904.000			20.241			-3.374
136004.000			20.241			-3.374
136105.000			20.241			-3.373
136203.000			20.240			-3.373
136304.000			20.240			-3.373
136404.000			20.238			-3.373
136504.000			20.239			-3.373
136604.000			20.238			-3.373
136705.000			20.237			-3.373
136804.000			20.237			-3.373
136904.000			20.237			-3.373
137005.000			20.237			-3.373
137103.000			20.236			-3.373
137205.000			20.235			-3.372
137304.000			20.235			-3.373
137404.000			20.235			-3.372
137505.000			20.234			-3.372
137604.000			20.234			-3.372
137704.000			20.234			-3.372
137805.000			20.233			-3.372
137904.000			20.232			-3.372
138003.000			20.231			-3.372
138105.000			20.231			-3.372
138204.000			20.231			-3.372
138304.000			20.231			-3.372
138405.000			20.231			-3.372
138504.000			20.230			-3.372
138604.000			20.230			-3.372
138704.000			20.229			-3.371
138804.000			20.228			-3.371
138903.000			20.228			-3.371
139005.000			20.227			-3.371
139104.000			20.228			-3.371
139204.000			20.227			-3.371
139305.000			20.225			-3.371
139404.000			20.225			-3.371
139504.000			20.225			-3.371
139604.000			20.224			-3.371
139704.000			20.224			-3.371
139804.000			20.224			-3.371
139905.000			20.224			-3.371
140004.000			20.223			-3.371
140104.000			20.222			-3.370
140205.000			20.222			-3.370
140304.000			20.221			-3.370
140405.000			20.220			-3.370
140503.000			20.221			-3.370
140604.000			20.221			-3.370
140705.000			20.219			-3.370
140804.000			20.219			-3.370
140904.000			20.219			-3.370
141005.000			20.219			-3.370
141104.000			20.218			-3.370
141203.000			20.217			-3.370
141305.000			20.217			-3.370
141404.000			20.217			-3.370
141504.000			20.216			-3.369
141605.000			20.215			-3.369
141704.000			20.216			-3.369
141804.000			20.215			-3.369
141904.000			20.214			-3.369
142004.000			20.215			-3.369
142103.000			20.214			-3.369
142205.000			20.213			-3.369
142304.000			20.213			-3.369
142404.000			20.212			-3.369
142505.000			20.211			-3.369
142604.000			20.211			-3.368
142704.000			20.210			-3.368
142804.000			20.210			-3.368
142904.000			20.210			-3.368
143004.000			20.209			-3.368
143105.000			20.208			-3.368
143204.000			20.207			-3.368
143304.000			20.207			-3.368
143405.000			20.208			-3.368
143503.000			20.208			-3.368
143605.000			20.207			-3.368
143704.000			20.206			-3.368
143804.000			20.206			-3.368
143905.000			20.206			-3.368
144004.000			20.205			-3.368
144104.000			20.205			-3.368
144205.000			20.205			-3.367
144304.000			20.204			-3.367
144403.000			20.204			-3.367
144505.000			20.204			-3.367
144604.000			20.203			-3.367
144704.000			20.204			-3.367
144805.000			20.203			-3.367
144904.000			20.202			-3.367
145004.000			20.202			-3.367
145104.000			20.201			-3.367
145204.000			20.201			-3.367
145304.000			20.200			-3.367
145405.000			20.201			-3.367
145504.000			20.200			-3.367
145604.000			20.199			-3.366
145705.000			20.199			-3.367
145804.000			20.199			-3.366
145904.000			20.198			-3.366
146004.000			20.197			-3.366
146104.000			20.196			-3.366
146204.000			20.196			-3.366
146305.000			20.197			-3.366
146404.000			20.196			-3.366
146504.000			20.196			-3.366
146605.000			20.196			-3.366
146704.000			20.195			-3.366
146805.000			20.194			-3.366
146903.000			20.195			-3.366
147004.000			20.194			-3.366
147105.000			20.193			-3.366
147204.000			20.193			-3.365
147304.000			20.192			-3.365
147405.000			20.192			-3.365
147504.000			20.191			-3.365
147604.000			20.190			-3.365
147705.000			20.191			-3.365
147803.000			20.191			-3.365
147904.000			20.190			-3.365
148005.000			20.190			-3.365
148104.000			20.190			-3.365
148204.000			20.189			-3.365
148305.000			20.188			-3.365
148404.000			20.188			-3.365
148504.000			20.188			-3.365
148605.000			20.188			-3.365
148703.000			20.187			-3.364
148804.000			20.187			-3.365
148905.000			20.186			-3.364
149004.000			20.185			-3.364
149104.000			20.184			-3.364
149205.000			20.185			-3.364
149304.000			20.185			-3.364
149404.000			20.184			-3.364
149505.000			20.183			-3.364
149603.000			20.182			-3.364
149704.000			20.183			-3.364
149805.000			20.183			-3.364
149904.000			20.183			-3.364
150005.000			20.182			-3.364
150104.000			20.181			-3.364
150204.000			20.180			-3.363
150305.000			20.179			-3.363
150404.000			20.180			-3.363
150503.000			20.180			-3.363
150605.000			20.180			-3.363
150704.000			20.179			-3.363
150804.000			20.179			-3.363
150905.000			20.177			-3.363
151004.000			20.177			-3.363
151104.000			20.176			-3.363
151204.000			20.176			-3.363
151304.000			20.176			-3.363
151403.000			20.176			-3.363
151505.000			20.175			-3.363
151604.000			20.175			-3.363
151704.000			20.174			-3.362
151805.000			20.173			-3.362
151904.000			20.172			-3.362
152004.000			20.172			-3.362
152104.000			20.172			-3.362
152204.000			20.173			-3.362
152304.000			20.171			-3.362
152405.000			20.170			-3.362
152504.000			20.170			-3.362
152604.000			20.170			-3.362
152705.000			20.170			-3.362
152804.000			20.169			-3.362
152904.000			20.169			-3.361
153003.000			20.169			-3.362
153104.000			20.168			-3.361
153205.000			20.168			-3.361
153304.000			20.168			-3.361
153404.000			20.167			-3.361
153505.000			20.167			-3.361
153604.000			20.167			-3.361
153704.000			20.166			-3.361
153805.000			20.165			-3.361
153903.000			20.165			-3.361
154004.000			20.164			-3.361
154105.000			20.164			-3.361
154204.000			20.165			-3.361
154304.000			20.165			-3.361
154405.000			20.163			-3.361
154504.000			20.161			-3.360
154603.000			20.161			-3.360
154705.000			20.161			-3.360
154804.000			20.161			-3.360
154904.000			20.160			-3.360
155005.000			20.160			-3.360
155104.000			20.160			-3.360
155204.000			20.159			-3.360
155305.000			20.159			-3.360
155404.000			20.158			-3.360
155503.000			20.157			-3.359
155605.000			20.157			-3.360
155704.000			20.158			-3.360
155804.000			20.158			-3.360
155905.000			20.157			-3.359
156004.000			20.157			-3.359
156104.000			20.156			-3.359
156204.000			20.156			-3.359
156304.000			20.156			-3.359
156403.000			20.154			-3.359
156504.000			20.154			-3.359
156604.000			20.154			-3.359
156705.000			20.153			-3.359
156804.000			20.152			-3.359
156904.000			20.152			-3.359
157005.000			20.153			-3.359
157104.000			20.152			-3.359
157204.000			20.151			-3.358
157304.000			20.150			-3.358
157404.000			20.149			-3.358
157504.000			20.149			-3.358
157605.000			20.149			-3.358
157704.000			20.150			-3.358
157804.000			20.149			-3.358
157905.000			20.148			-3.358
158004.000			20.147			-3.358
158104.000			20.147			-3.358
158204.000			20.147			-3.358
158304.000			20.146			-3.358
158404.000			20.146			-3.358
158505.000			20.147			-3.358
158604.000			20.146			-3.358
158704.000			20.145			-3.357
158805.000			20.144			-3.357
158903.000			20.144			-3.357
159004.000			20.143			-3.357
159104.000			20.144			-3.357
159204.000			20.144			-3.357
159304.000			20.144			-3.357
159404.000			20.143			-3.357
159504.000			20.143			-3.357
159605.000			20.142			-3.357
159704.000			20.141			-3.357
159803.000			20.141			-3.357
159905.000			20.141			-3.357
160004.000			20.141			-3.357
160104.000			20.140			-3.357
160205.000			20.140			-3.357
160304.000			20.139			-3.356
160404.000			20.138			-3.356
160505.000			20.138			-3.356
160604.000			20.138			-3.356
160703.000			20.138			-3.356
160805.000			20.137			-3.356
160904.000			20.136			-3.356
161004.000			20.137			-3.356
161105.000			20.136			-3.356
161204.000			20.136			-3.356
161304.000			20.135			-3.356
161404.000			20.135			-3.356
161504.000			20.135			-3.356
161603.000			20.135			-3.356
161705.000			20.134			-3.356
161804.000			20.134			-3.356
161904.000			20.134			-3.356
162005.000			20.132			-3.355
162104.000			20.132			-3.355
162204.000			20.132			-3.355
162304.000			20.132			-3.355
162404.000			20.130			-3.355
162504.000			20.130			-3.355
162604.000			20.131			-3.355
162704.000			20.130			-3.355
162805.000			20.130			-3.355
162904.000			20.129			-3.355
163004.000			20.129			-3.355
163105.000			20.129			-3.355
163203.000			20.129			-3.355
163304.000			20.128			-3.355
163405.000			20.128			-3.355
163504.000			20.128			-3.355
163604.000			20.127			-3.355
163705.000			20.127			-3.355
163804.000			20.127			-3.355
163903.000			20.125			-3.354
164005.000			20.126			-3.354
164104.000			20.127			-3.354
164204.000			20.125			-3.354
164305.000			20.124			-3.354
164404.000			20.123			-3.354
164504.000			20.123			-3.354
164605.000			20.124			-3.354
164704.000			20.123			-3.354
164803.000			20.123			-3.354
164905.000			20.122			-3.354
165004.000			20.122			-3.354
165104.000			20.123			-3.354
165205.000			20.122			-3.354
165304.000			20.121			-3.353
165404.000			20.121			-3.353
165504.000			20.121			-3.353
165604.000			20.121			-3.353
165703.000			20.120			-3.353
165805.000			20.120			-3.353
165904.000			20.119			-3.353
166005.000			20.119			-3.353
166104.000			20.118			-3.353
166204.000			20.117			-3.353
166305.000			20.118			-3.353
166403.000			20.117			-3.353
166504.000			20.116			-3.353
166605.000			20.116			-3.353
166704.000			20.116			-3.353
166804.000			20.115			-3.353
166905.000			20.115			-3.353
167004.000			20.115			-3.352
167104.000			20.114			-3.352
167205.000			20.114			-3.352
167303.000			20.114			-3.352
167404.000			20.113			-3.352
167505.000			20.113			-3.352
167604.000			20.112			-3.352
167704.000			20.112			-3.352
167805.000			20.112			-3.352
167904.000			20.112			-3.352
168003.000			20.111			-3.352
168105.000			20.110			-3.352
168204.000			20.110			-3.352
168304.000			20.109			-3.352
168405.000			20.109			-3.351
168504.000			20.108			-3.351
168604.000			20.109			-3.351
168705.000			20.109			-3.351
168804.000			20.108			-3.351
168903.000			20.107			-3.351
169005.000			20.107			-3.351
169104.000			20.106			-3.351
169205.000			20.106			-3.351
169304.000			20.106			-3.351
169404.000			20.106			-3.351
169505.000			20.105			-3.351
169604.000			20.106			-3.351
169704.000			20.104			-3.351
169804.000			20.104			-3.351
169904.000			20.104			-3.351
170004.000			20.103			-3.351
170105.000			20.103			-3.351
170204.000			20.103			-3.350
170304.000			20.103			-3.350
170405.000			20.103			-3.350
170503.000			20.102			-3.350
170604.000			20.102			-3.350
170705.000			20.101			-3.350
170804.000			20.100			-3.350
170904.000			20.100			-3.350
171005.000			20.100			-3.350
171104.000			20.099			-3.350
171204.000			20.099			-3.350
171305.000			20.099			-3.350
171403.000			20.098			-3.350
171504.000			20.097			-3.350
171605.000			20.096			-3.349
171704.000			20.095			-3.349
171804.000			20.096			-3.349
171905.000			20.097			-3.349
172004.000			20.095			-3.349
172104.000			20.094			-3.349
172205.000			20.095			-3.349
172303.000			20.094			-3.349
172405.000			20.094			-3.349
172504.000			20.094			-3.349
172604.000			20.095			-3.349
172705.000			20.093			-3.349
172804.000			20.093			-3.349
172904.000			20.092			-3.349
173004.000			20.092			-3.349
173104.000			20.092			-3.349
173203.000			20.092			-3.349
173305.000			20.091			-3.349
173404.000			20.091			-3.348
173504.000			20.090			-3.348
173605.000			20.090			-3.348
173704.000			20.090			-3.348
173804.000			20.090			-3.348
173904.000			20.088			-3.348
174004.000			20.088			-3.348
174104.000			20.087			-3.348
174205.000			20.087			-3.348
174304.000			20.086			-3.348
174404.000			20.086			-3.348
174505.000			20.087			-3.348
174604.000			20.087			-3.348
174704.000			20.087			-3.348
174804.000			20.085			-3.348
174904.000			20.084			-3.347
175004.000			20.084			-3.347
175105.000			20.084			-3.347
175204.000			20.083			-3.347
175304.000			20.083			-3.347
175405.000			20.083			-3.347
175504.000			20.084			-3.347
175605.000			20.083			-3.347
175703.000			20.082			-3.347
175804.000			20.083			-3.347
175905.000			20.082			-3.347
176004.000			20.081			-3.347
176104.000			20.081			-3.347
176205.000			20.080			-3.347
176304.000			20.079			-3.346
176404.000			20.079			-3.347
176505.000			20.079			-3.347
176603.000			20.080			-3.347
176704.000			20.080			-3.347
176805.000			20.079			-3.346
176904.000			20.078			-3.346
177004.000			20.077			-3.346
177105.000			20.077			-3.346
177204.000			20.077			-3.346
177304.000			20.077			-3.346
177405.000			20.076			-3.346
177503.000			20.076			-3.346
177604.000			20.076			-3.346
177705.000			20.074			-3.346
177804.000			20.074			-3.346
177904.000			20.073			-3.346
178005.000			20.073			-3.346
178104.000			20.073			-3.346
178204.000			20.074			-3.346
178305.000			20.074			-3.346
178403.000			20.072			-3.345
178504.000			20.071			-3.345
178605.000			20.072			-3.345
178704.000			20.071			-3.345
178805.000			20.071			-3.345
178904.000			20.070			-3.345
179004.000			20.071			-3.345
179105.000			20.071			-3.345
179204.000			20.070			-3.345
179303.000			20.068			-3.345
179405.000			20.069			-3.345
179504.000			20.070			-3.345
179604.000			20.070			-3.345
179705.000			20.068			-3.345
179804.000			20.068			-3.345
179904.000			20.068			-3.345
180005.000			20.068			-3.345
180104.000			20.067			-3.344
180203.000			20.067			-3.344
180305.000			20.067			-3.344
180404.000			20.066			-3.344
180504.000			20.065			-3.344
180605.000			20.065			-3.344
180704.000			20.065			-3.344
180804.000			20.065			-3.344
180904.000			20.064			-3.344
181004.000			20.063			-3.344
181103.000			20.063			-3.344
181205.000			20.063			-3.344
181304.000			20.063			-3.344
181404.000			20.063			-3.344
181505.000			20.062			-3.344
181604.000			20.062			-3.344
181704.000			20.061			-3.344
181803.000			20.062			-3.344
181904.000			20.061			-3.343
182005.000			20.061			-3.343
182104.000			20.059			-3.343
182204.000			20.059			-3.343
182305.000			20.059			-3.343
182404.000			20.059			-3.343
182504.000			20.060			-3.343
182605.000			20.059			-3.343
182703.000			20.058			-3.343
182804.000			20.057			-3.343
182905.000			20.057			-3.343
183004.000			20.057			-3.343
183104.000			20.056			-3.343
183205.000			20.055			-3.343
183304.000			20.055			-3.342
183404.000			20.054			-3.342
183505.000			20.055			-3.342
183603.000			20.056			-3.343
183704.000			20.055			-3.343
183805.000			20.054			-3.342
183904.000			20.053			-3.342
184004.000			20.054			-3.342
184105.000			20.053			-3.342
184204.000			20.053			-3.342
184303.000			20.053			-3.342
184405.000			20.053			-3.342
184503.000			20.053			-3.342
184604.000			20.052			-3.342
184705.000			20.052			-3.342
184804.000			20.050			-3.342
184904.000			20.051			-3.342
185004.000			20.051			-3.342
185104.000			20.050			-3.342
185205.000			20.049			-3.342
185304.000			20.049			-3.341
185403.000			20.048			-3.341
185505.000			20.049			-3.342
185604.000			20.048			-3.341
185704.000			20.047			-3.341
185805.000			20.047			-3.341
185904.000			20.046			-3.341
186004.000			20.047			-3.341
186105.000			20.047			-3.341
186204.000			20.046			-3.341
186303.000			20.046			-3.341
186405.000			20.046			-3.341
186504.000			20.046			-3.341
186604.000			20.046			-3.341
186705.000			20.045			-3.341
186804.000			20.044			-3.341
186904.000			20.044			-3.341
187005.000			20.044			-3.341
187104.000			20.043			-3.341
187203.000			20.043			-3.340
187305.000			20.042			-3.340
187404.000			20.041			-3.340
187504.000			20.042			-3.340
187605.000			20.042			-3.340
187704.000			20.042			-3.340
187804.000			20.042			-3.340
187905.000			20.042			-3.340
188004.000			20.040			-3.340
188103.000			20.041			-3.340
188205.000			20.041			-3.340
188304.000			20.040			-3.340
188405.000			20.040			-3.340
188504.000			20.040			-3.340
188604.000			20.039			-3.340
188705.000			20.039			-3.340
188804.000			20.038			-3.340
188904.000			20.038			-3.340
189004.000			20.037			-3.340
189104.000			20.038			-3.340
189204.000			20.036			-3.339
189305.000			20.037			-3.339
189404.000			20.037			-3.339
189504.000			20.037			-3.340
189605.000			20.036			-3.339
189704.000			20.036			-3.339
189804.000			20.036			-3.339
189904.000			20.036			-3.339
190004.000			20.034			-3.339
190104.000			20.033			-3.339
190205.000			20.033			-3.339
190304.000			20.033			-3.339
190404.000			20.033			-3.339
190505.000			20.033			-3.339
190603.000			20.032			-3.339
190704.000			20.031			-3.339
190804.000			20.031			-3.339
190904.000			20.031			-3.339
191004.000			20.031			-3.339
191105.000			20.030			-3.338
191204.000			20.030			-3.338
191304.000			20.030			-3.338
191405.000			20.030			-3.338
191503.000			20.029			-3.338
191605.000			20.027			-3.338
191704.000			20.027			-3.338
191804.000			20.028			-3.338
191905.000			20.029			-3.338
192004.000			20.028			-3.338
192104.000			20.027			-3.338
192205.000			20.027			-3.338
192304.000			20.026			-3.338
192403.000			20.025			-3.338
192505.000			20.026			-3.338
192604.000			20.025			-3.338
192704.000			20.025			-3.337
192805.000			20.025			-3.337
192904.000			20.025			-3.337
193004.000			20.025			-3.337
193104.000			20.024			-3.337
193204.000			20.024			-3.337
193303.000			20.024			-3.337
193405.000			20.023			-3.337
193504.000			20.023			-3.337
193604.000			20.023			-3.337
193705.000			20.022			-3.337
193804.000			20.022			-3.337
193904.000			20.022			-3.337
194004.000			20.021			-3.337
194104.000			20.020			-3.337
194204.000			20.021			-3.337
194305.000			20.021			-3.337
194404.000			20.019			-3.337
194504.000			20.019			-3.336
194605.000			20.019			-3.336
194703.000			20.018			-3.336
194805.000			20.018			-3.336
194903.000			20.019			-3.337
195004.000			20.018			-3.336
195105.000			20.017			-3.336
195204.000			20.017			-3.336
195304.000			20.017			-3.336
195405.000			20.016			-3.336
195504.000			20.017			-3.336
195603.000			20.016			-3.336
195705.000			20.015			-3.336
195803.000			20.015			-3.336
195904.000			20.015			-3.336
196005.000			20.014			-3.336
196104.000			20.014			-3.336
196204.000			20.014			-3.336
196305.000			20.015			-3.336
196404.000			20.015			-3.336
196503.000			20.013			-3.336
196605.000			20.011			-3.335
196704.000			20.012			-3.335
196804.000			20.011			-3.335
196905.000			20.011			-3.335
197004.000			20.011			-3.335
197104.000			20.011			-3.335
197205.000			20.012			-3.335
197304.000			20.011			-3.335
197403.000			20.010			-3.335
197505.000			20.009			-3.335
197604.000			20.010			-3.335
197704.000			20.009			-3.335
197805.000			20.009			-3.335
197904.000			20.008			-3.335
198005.000			20.008			-3.335
198104.000			20.008			-3.335
198204.000			20.007			-3.335
198304.000			20.007			-3.335
198404.000			20.007			-3.335
198504.000			20.006			-3.334
198605.000			20.006			-3.334
198704.000			20.006			-3.334
198804.000			20.006			-3.334
198905.000			20.005			-3.334
199003.000			20.004			-3.334
199104.000			20.004			-3.334
199204.000			20.004			-3.334
199304.000			20.005			-3.334
199404.000			20.005			-3.334
199505.000			20.004			-3.334
199604.000			20.004			-3.334
199704.000			20.003			-3.334
199805.000			20.002			-3.334
199903.000			20.002			-3.334
200004.000			20.002			-3.334
200105.000			20.002			-3.334
200204.000			20.001			-3.334
200304.000			20.001			-3.333
200405.000			20.001			-3.333
200504.000			20.001			-3.334
200603.000			20.000			-3.333
200705.000			19.999			-3.333
200803.000			19.999			-3.333
200904.000			20.000			-3.333
201005.000			19.999			-3.333
201104.000			19.999			-3.333
201205.000			19.999			-3.333
201304.000			19.999			-3.333
201404.000			19.999			-3.333
201504.000			19.999			-3.333
201604.000			19.999			-3.333
201703.000			19.999			-3.333
201805.000			20.000			-3.333
201904.000			20.000			-3.333
202004.000			19.999			-3.333
202105.000			19.999			-3.333
202204.000			19.999			-3.333
202304.000			19.999			-3.333
202405.000			19.999			-3.333
202504.000			19.998			-3.333
202603.000			19.999			-3.333
202705.000			19.999			-3.333
202803.000			19.999			-3.333
202904.000			19.998			-3.333
203005.000			19.998			-3.333
203104.000			19.998			-3.333
203204.000			19.997			-3.333
203305.000			19.998			-3.333
203404.000			19.998			-3.333
203504.000			19.997			-3.333
203605.000			19.997			-3.333
203703.000			19.996			-3.333
203804.000			19.995			-3.333
203905.000			19.995			-3.333
204004.000			19.995			-3.333
204104.000			19.994			-3.332
204204.000			19.993			-3.332
204304.000			19.994			-3.332
204405.000			19.994			-3.332
204504.000			19.993			-3.332
204603.000			19.992			-3.332
204705.000			19.993			-3.332
204803.000			19.992			-3.332
204904.000			19.991			-3.332
205005.000			19.991			-3.332
205104.000			19.990			-3.332
205204.000			19.990			-3.332
205305.000			19.990			-3.332
205404.000			19.989			-3.331
205504.000			19.989			-3.331
205605.000			19.989			-3.331
205703.000			19.987			-3.331
205804.000			19.986			-3.331
205905.000			19.986			-3.331
206004.000			19.985			-3.331
206104.000			19.985			-3.331
206205.000			19.985			-3.331
206304.000			19.985			-3.331
206404.000			19.985			-3.331
206505.000			19.985			-3.331
206604.000			19.984			-3.331
206704.000			19.984			-3.331
206804.000			19.983			-3.331
206904.000			19.983			-3.331
207004.000			19.983			-3.330
207105.000			19.982			-3.330
207204.000			19.983			-3.330
207304.000			19.982			-3.330
207405.000			19.982			-3.330
207504.000			19.982			-3.330
207605.000			19.981			-3.330
207703.000			19.980			-3.330
207804.000			19.980			-3.330
207905.000			19.981			-3.330
208004.000			19.981			-3.330
208104.000			19.980			-3.330
208205.000			19.979			-3.330
208304.000			19.980			-3.330
208404.000			19.979			-3.330
208505.000			19.979			-3.330
208603.000			19.979			-3.330
208704.000			19.980			-3.330
208804.000			19.979			-3.330
208904.000			19.978			-3.330
209004.000			19.979			-3.330
209105.000			19.977			-3.330
209204.000			19.978			-3.330
209304.000			19.978			-3.330
209405.000			19.979			-3.330
209504.000			19.978			-3.330
209604.000			19.978			-3.330
209704.000			19.977			-3.329
209804.000			19.977			-3.329
209903.000			19.977			-3.330
210005.000			19.977			-3.330
210104.000			19.977			-3.330
210204.000			19.977			-3.329
210305.000			19.975			-3.329
210404.000			19.975			-3.329
210504.000			19.975			-3.329
210604.000			19.975			-3.329
210704.000			19.975			-3.329
210803.000			19.975			-3.329
210904.000			19.974			-3.329
211004.000			19.973			-3.329
211105.000			19.973			-3.329
211204.000			19.973			-3.329
211304.000			19.973			-3.329
211405.000			19.973			-3.329
211504.000			19.973			-3.329
211604.000			19.973			-3.329
211704.000			19.971			-3.329
211804.000			19.970			-3.328
211903.000			19.971			-3.328
212005.000			19.971			-3.328
212104.000			19.969			-3.328
212204.000			19.969			-3.328
212305.000			19.969			-3.328
212404.000			19.970			-3.328
212504.000			19.969			-3.328
212604.000			19.968			-3.328
212704.000			19.967			-3.328
212803.000			19.968			-3.328
212905.000			19.967			-3.328
213004.000			19.967			-3.328
213104.000			19.968			-3.328
213205.000			19.967			-3.328
213304.000			19.966			-3.328
213404.000			19.966			-3.328
213505.000			19.966			-3.328
213604.000			19.965			-3.328
213703.000			19.965			-3.327
213805.000			19.964			-3.327
213904.000			19.964			-3.327
214005.000			19.963			-3.327
214104.000			19.963			-3.327
214204.000			19.962			-3.327
214305.000			19.962			-3.327
214404.000			19.961			-3.327
214504.000			19.962			-3.327
214604.000			19.961			-3.327
214704.000			19.961			-3.327
214804.000			19.961			-3.327
214905.000			19.960			-3.327
215004.000			19.959			-3.327
215104.000			19.959			-3.326
215205.000			19.958			-3.326
215304.000			19.958			-3.326
215404.000			19.958			-3.326
215504.000			19.958			-3.326
215604.000			19.957			-3.326
215703.000			19.956			-3.326
215805.000			19.957			-3.326
215904.000			19.958			-3.326
216004.000			19.958			-3.326
216105.000			19.956			-3.326
216204.000			19.955			-3.326
216304.000			19.955			-3.326
216405.000			19.956			-3.326
216504.000			19.957			-3.326
216603.000			19.957			-3.326
216705.000			19.957			-3.326
216804.000			19.955			-3.326
216904.000			19.955			-3.326
217005.000			19.955			-3.326
217104.000			19.956			-3.326
217205.000			19.955			-3.326
217304.000			19.954			-3.326
217404.000			19.955			-3.326
217504.000			19.954			-3.326
217604.000			19.953			-3.326
217703.000			19.953			-3.326
217805.000			19.952			-3.325
217904.000			19.951			-3.325
218004.000			19.952			-3.325
218105.000			19.952			-3.325
218204.000			19.951			-3.325
218304.000			19.950			-3.325
218404.000			19.950			-3.325
218504.000			19.950			-3.325
218603.000			19.949			-3.325
218705.000			19.949			-3.325
218804.000			19.950			-3.325
218904.000			19.948			-3.325
219005.000			19.947			-3.325
219104.000			19.948			-3.325
219204.000			19.947			-3.324
219305.000			19.946			-3.324
219404.000			19.947			-3.324
219503.000			19.946			-3.324
219605.000			19.946			-3.324
219704.000			19.946			-3.324
219804.000			19.946			-3.324
219905.000			19.946			-3.324
220004.000			19.945			-3.324
220104.000			19.944			-3.324
220204.000			19.945			-3.324
220304.000			19.945			-3.324
220403.000			19.945			-3.324
220504.000			19.943			-3.324
220603.000			19.944			-3.324
220705.000			19.944			-3.324
220804.000			19.944			-3.324
220904.000			19.944			-3.324
221005.000			19.943			-3.324
221104.000			19.942			-3.324
221204.000			19.943			-3.324
221304.000			19.943			-3.324
221404.000			19.943			-3.324
221503.000			19.943			-3.324
221605.000			19.942			-3.324
221704.000			19.942			-3.324
221804.000			19.941			-3.324
221905.000			19.941			-3.323
222004.000			19.940			-3.323
222104.000			19.940			-3.323
222204.000			19.942			-3.324
222304.000			19.942			-3.324
222403.000			19.940			-3.323
222505.000			19.939			-3.323
222604.000			19.941			-3.324
222704.000			19.941			-3.323
222805.000			19.940			-3.323
222904.000			19.939			-3.323
223004.000			19.939			-3.323
223104.000			19.939			-3.323
223204.000			19.939			-3.323
223303.000			19.938			-3.323
223405.000			19.936			-3.323
223504.000			19.937			-3.323
223605.000			19.937			-3.323
223704.000			19.937			-3.323
223804.000			19.935			-3.323
223905.000			19.936			-3.323
224003.000			19.935			-3.322
224104.000			19.934			-3.322
224204.000			19.934			-3.322
224304.000			19.934			-3.322
224404.000			19.933			-3.322
224505.000			19.933			-3.322
224604.000			19.933			-3.322
224704.000			19.933			-3.322
224805.000			19.932			-3.322
224904.000			19.932			-3.322
225004.000			19.931			-3.322
225104.000			19.932			-3.322
225204.000			19.932			-3.322
225304.000			19.931			-3.322
225405.000			19.931			-3.322
225504.000			19.930			-3.322
225604.000			19.930			-3.322
225705.000			19.931			-3.322
225804.000			19.931			-3.322
225904.000			19.932			-3.322
226004.000			19.931			-3.322
226104.000			19.930			-3.322
226204.000			19.929			-3.322
226305.000			19.930			-3.322
226404.000			19.930			-3.322
226504.000			19.928			-3.321
226605.000			19.929			-3.321
226704.000			19.930			-3.322
226805.000			19.929			-3.321
226903.000			19.928			-3.321
227004.000			19.927			-3.321
227105.000			19.926			-3.321
227204.000			19.927			-3.321
227304.000			19.928			-3.321
227405.000			19.928			-3.321
227504.000			19.927			-3.321
227604.000			19.927			-3.321
227705.000			19.925			-3.321
227803.000			19.925			-3.321
227904.000			19.925			-3.321
228004.000			19.925			-3.321
228104.000			19.925			-3.321
228204.000			19.925			-3.321
228305.000			19.926			-3.321
228404.000			19.924			-3.321
228504.000			19.925			-3.321
228605.000			19.924			-3.321
228704.000			19.924			-3.321
228804.000			19.924			-3.321
228904.000			19.923			-3.321
229004.000			19.923			-3.321
229104.000			19.923			-3.320
229205.000			19.923			-3.320
229304.000			19.923			-3.320
229404.000			19.922			-3.320
229505.000			19.922			-3.320
229604.000			19.922			-3.320
229704.000			19.921			-3.320
229803.000			19.922			-3.320
229904.000			19.920			-3.320
230005.000			19.920			-3.320
230104.000			19.919			-3.320
230204.000			19.919			-3.320
230305.000			19.919			-3.320
230404.000			19.919			-3.320
230504.000			19.919			-3.320
230605.000			19.918			-3.320
230703.000			19.917			-3.320
230804.000			19.917			-3.319
230905.000			19.916			-3.319
231004.000			19.918			-3.320
231104.000			19.917			-3.320
231205.000			19.916			-3.319
231304.000			19.915			-3.319
231404.000			19.916			-3.319
231505.000			19.915			-3.319
231603.000			19.914			-3.319
231704.000			19.914			-3.319
231805.000			19.914			-3.319
231904.000			19.914			-3.319
232004.000			19.912			-3.319
232105.000			19.913			-3.319
232204.000			19.914			-3.319
232304.000			19.914			-3.319
232405.000			19.913			-3.319
232503.000			19.912			-3.319
232604.000			19.914			-3.319
232705.000			19.914			-3.319
232804.000			19.912			-3.319
232904.000			19.913			-3.319
233004.000			19.913			-3.319
233104.000			19.912			-3.319
233205.000			19.912			-3.319
233304.000			19.912			-3.319
233403.000			19.911			-3.319
233505.000			19.911			-3.318
233604.000			19.912			-3.319
233704.000			19.911			-3.318
233805.000			19.911			-3.319
233904.000			19.911			-3.319
234004.000			19.911			-3.318
234105.000			19.911			-3.318
234204.000			19.909			-3.318
234303.000			19.909			-3.318
234405.000			19.909			-3.318
234504.000			19.908			-3.318
234604.000			19.908			-3.318
234705.000			19.909			-3.318
234804.000			19.908			-3.318
234904.000			19.906			-3.318
235005.000			19.906			-3.318
235104.000			19.906			-3.318
235203.000			19.905			-3.318
235305.000			19.905			-3.317
235403.000			19.905			-3.317
235504.000			19.905			-3.317
235605.000			19.904			-3.317
235704.000			19.903			-3.317
235804.000			19.902			-3.317
235905.000			19.901			-3.317
236004.000			19.901			-3.317
236103.000			19.902			-3.317
236205.000			19.901			-3.317
236303.000			19.901			-3.317
236405.000			19.900			-3.317
236504.000			19.900			-3.317
236604.000			19.900			-3.317
236705.000			19.899			-3.317
236804.000			19.899			-3.316
236904.000			19.898			-3.316
237005.000			19.899			-3.316
237104.000			19.898			-3.316
237203.000			19.898			-3.316
237305.000			19.898			-3.316
237404.000			19.897			-3.316
237504.000			19.897			-3.316
237605.000			19.897			-3.316
237704.000			19.896			-3.316
237804.000			19.895			-3.316
237905.000			19.895			-3.316
238004.000			19.895			-3.316
238104.000			19.895			-3.316
238205.000			19.896			-3.316
238303.000			19.895			-3.316
238404.000			19.894			-3.316
238505.000			19.894			-3.316
238604.000			19.893			-3.316
238704.000			19.892			-3.315
238805.000			19.893			-3.315
238904.000			19.893			-3.315
239004.000			19.893			-3.315
239105.000			19.893			-3.316
239203.000			19.892			-3.315
239304.000			19.892			-3.315
239403.000			19.892			-3.315
239504.000			19.893			-3.315
239605.000			19.892			-3.315
239704.000			19.891			-3.315
239804.000			19.891			-3.315
239905.000			19.889			-3.315
240004.000			19.890			-3.315
240104.000			19.890			-3.315
240205.000			19.889			-3.315
240303.000			19.889			-3.315
240404.000			19.888			-3.315
240504.000			19.889			-3.315
240604.000			19.889			-3.315
240704.000			19.888			-3.315
240805.000			19.888			-3.315
240904.000			19.888			-3.315
241004.000			19.887			-3.314
241105.000			19.887			-3.314
241204.000			19.886			-3.314
241304.000			19.886			-3.314
241404.000			19.886			-3.314
241504.000			19.886			-3.314
241603.000			19.885			-3.314
241705.000			19.885			-3.314
241804.000			19.884			-3.314
241904.000			19.884			-3.314
242005.000			19.882			-3.314
242104.000			19.883			-3.314
242204.000			19.884			-3.314
242304.000			19.884			-3.314
242404.000			19.884			-3.314
242503.000			19.882			-3.314
242605.000			19.882			-3.314
242704.000			19.882			-3.314
242805.000			19.882			-3.314
242904.000			19.882			-3.314
243004.000			19.882			-3.314
243105.000			19.881			-3.314
243204.000			19.880			-3.313
243304.000			19.879			-3.313
243404.000			19.879			-3.313
243504.000			19.880			-3.313
243604.000			19.880			-3.313
243705.000			19.880			-3.313
243804.000			19.879			-3.313
243904.000			19.878			-3.313
244005.000			19.878			-3.313
244104.000			19.879			-3.313
244204.000			19.879			-3.313
244304.000			19.878			-3.313
244404.000			19.877			-3.313
244503.000			19.877			-3.313
244605.000			19.877			-3.313
244704.000			19.877			-3.313
244804.000			19.876			-3.313
244905.000			19.875			-3.313
245004.000			19.876			-3.313
245104.000			19.876			-3.313
245205.000			19.875			-3.313
245304.000			19.875			-3.312
245403.000			19.875			-3.312
245505.000			19.874			-3.312
245604.000			19.874			-3.312
245704.000			19.874			-3.312
245805.000			19.873			-3.312
245904.000			19.873			-3.312
246005.000			19.873			-3.312
246104.000			19.873			-3.312
246204.000			19.873			-3.312
246304.000			19.872			-3.312
246404.000			19.872			-3.312
246503.000			19.872			-3.312
246605.000			19.871			-3.312
246704.000			19.871			-3.312
246804.000			19.871			-3.312
246905.000			19.871			-3.312
247004.000			19.872			-3.312
247104.000			19.871			-3.312
247204.000			19.870			-3.312
247304.000			19.871			-3.312
247403.000			19.870			-3.312
247505.000			19.869			-3.311
247604.000			19.870			-3.312
247704.000			19.869			-3.312
247805.000			19.868			-3.311
247904.000			19.870			-3.312
248004.000			19.869			-3.312
248105.000			19.870			-3.312
248204.000			19.870			-3.312
248303.000			19.870			-3.312
248405.000			19.870			-3.312
248504.000			19.870			-3.312
248604.000			19.870			-3.312
248705.000			19.869			-3.311
248804.000			19.869			-3.311
248904.000			19.869			-3.312
249004.000			19.869			-3.312
249104.000			19.870			-3.312
249205.000			19.870			-3.312
249304.000			19.869			-3.311
249403.000			19.869			-3.311
249505.000			19.869			-3.312
249604.000			19.869			-3.311
249704.000			19.869			-3.312
249805.000			19.869			-3.312
249904.000			19.869			-3.312
250004.000			19.869			-3.311
250105.000			19.868			-3.311
250204.000			19.868			-3.311
250303.000			19.867			-3.311
250405.000			19.867			-3.311
250503.000			19.866			-3.311
250604.000			19.866			-3.311
250705.000			19.866			-3.311
250804.000			19.867			-3.311
250904.000			19.867			-3.311
251005.000			19.867			-3.311
251104.000			19.867			-3.311
251204.000			19.866			-3.311
251305.000			19.865			-3.311
251403.000			19.866			-3.311
251504.000			19.864			-3.311
251605.000			19.864			-3.311
251704.000			19.864			-3.311
251804.000			19.865			-3.311
251905.000			19.864			-3.311
252004.000			19.863			-3.311
252104.000			19.863			-3.310
252205.000			19.863			-3.311
252303.000			19.862			-3.310
252405.000			19.862			-3.310
252504.000			19.861			-3.310
252604.000			19.861			-3.310
252705.000			19.861			-3.310
252804.000			19.861			-3.310
252904.000			19.861			-3.310
253005.000			19.860			-3.310
253104.000			19.859			-3.310
253203.000			19.859			-3.310
253305.000			19.859			-3.310
253403.000			19.859			-3.310
253504.000			19.859			-3.310
253605.000			19.858			-3.310
253704.000			19.858			-3.310
253804.000			19.857			-3.310
253905.000			19.856			-3.309
254004.000			19.856			-3.309
254104.000			19.857			-3.309
254205.000			19.856			-3.309
254303.000			19.856			-3.309
254404.000			19.855			-3.309
254505.000			19.854			-3.309
254604.000			19.854			-3.309
254704.000			19.854			-3.309
254805.000			19.854			-3.309
254904.000			19.853			-3.309
255004.000			19.853			-3.309
255105.000			19.852			-3.309
255204.000			19.853			-3.309
255304.000			19.852			-3.309
255403.000			19.852			-3.309
255504.000			19.852			-3.309
255605.000			19.853			-3.309
255704.000			19.853			-3.309
255804.000			19.852			-3.309
255905.000			19.852			-3.309
256004.000			19.850			-3.308
256104.000			19.851			-3.308
256205.000			19.851			-3.308
256303.000			19.851			-3.308
256404.000			19.851			-3.308
256505.000			19.851			-3.308
256604.000			19.851			-3.309
256704.000			19.849			-3.308
256805.000			19.849			-3.308
256904.000			19.849			-3.308
257004.000			19.849			-3.308
257105.000			19.849			-3.308
257203.000			19.848			-3.308
257304.000			19.849			-3.308
257404.000			19.848			-3.308
257504.000			19.847			-3.308
257604.000			19.846			-3.308
257705.000			19.846			-3.308
257804.000			19.847			-3.308
257904.000			19.847			-3.308
258005.000			19.847			-3.308
258104.000			19.846			-3.308
258204.000			19.847			-3.308
258304.000			19.847			-3.308
258404.000			19.846			-3.308
258503.000			19.847			-3.308
258605.000			19.845			-3.308
258704.000			19.844			-3.307
258805.000			19.844			-3.307
258904.000			19.844			-3.307
259004.000			19.844			-3.307
259105.000			19.843			-3.307
259204.000			19.842			-3.307
259304.000			19.842			-3.307
259404.000			19.842			-3.307
259504.000			19.842			-3.307
259604.000			19.842			-3.307
259705.000			19.841			-3.307
259804.000			19.842			-3.307
259904.000			19.842			-3.307
260005.000			19.840			-3.307
260104.000			19.840			-3.307
260204.000			19.841			-3.307
260304.000			19.839			-3.307
260404.000			19.839			-3.307
260504.000			19.840			-3.307
260605.000			19.839			-3.307
260704.000			19.839			-3.307
260804.000			19.839			-3.307
260905.000			19.839			-3.306
261004.000			19.838			-3.306
261104.000			19.838			-3.306
261204.000			19.837			-3.306
261304.000			19.837			-3.306
261403.000			19.837			-3.306
261505.000			19.837			-3.306
261604.000			19.836			-3.306
261704.000			19.836			-3.306
261805.000			19.837			-3.306
261904.000			19.837			-3.306
262005.000			19.835			-3.306
262104.000			19.835			-3.306
262204.000			19.835			-3.306
262304.000			19.836			-3.306
262404.000			19.835			-3.306
262504.000			19.833			-3.306
262605.000			19.834			-3.306
262704.000			19.834			-3.306
262804.000			19.834			-3.306
262905.000			19.834			-3.306
263004.000			19.834			-3.306
263104.000			19.834			-3.306
263204.000			19.833			-3.306
263304.000			19.833			-3.306
263404.000			19.833			-3.306
263505.000			19.832			-3.305
263604.000			19.833			-3.305
263704.000			19.833			-3.305
263805.000			19.832			-3.305
263904.000			19.831			-3.305
264004.000			19.832			-3.305
264104.000			19.832			-3.305
264204.000			19.832			-3.305
264304.000			19.831			-3.305
264405.000			19.832			-3.305
264504.000			19.832			-3.305
264604.000			19.832			-3.305
264705.000			19.832			-3.305
264804.000			19.832			-3.305
264904.000			19.832			-3.305
265003.000			19.830			-3.305
265104.000			19.831			-3.305
265205.000			19.831			-3.305
265304.000			19.831			-3.305
265404.000			19.830			-3.305
265505.000			19.830			-3.305
265604.000			19.830			-3.305
265704.000			19.830			-3.305
265805.000			19.831			-3.305
265903.000			19.830			-3.305
266004.000			19.829			-3.305
266104.000			19.829			-3.305
266204.000			19.828			-3.305
266304.000			19.828			-3.305
266405.000			19.829			-3.305
266504.000			19.828			-3.305
266604.000			19.829			-3.305
266705.000			19.827			-3.305
266804.000			19.827			-3.304
266904.000			19.827			-3.304
267004.000			19.826			-3.304
267104.000			19.826			-3.304
267204.000			19.826			-3.304
267305.000			19.827			-3.304
267404.000			19.826			-3.304
267504.000			19.825			-3.304
267605.000			19.824			-3.304
267704.000			19.824			-3.304
267804.000			19.823			-3.304
267904.000			19.823			-3.304
268004.000			19.823			-3.304
268104.000			19.823			-3.304
268204.000			19.823			-3.304
268304.000			19.822			-3.304
268405.000			19.822			-3.304
268504.000			19.822			-3.304
268604.000			19.821			-3.303
268705.000			19.821			-3.304
268804.000			19.821			-3.303
268904.000			19.820			-3.303
269004.000			19.819			-3.303
269104.000			19.819			-3.303
269204.000			19.820			-3.303
269305.000			19.820			-3.303
269404.000			19.819			-3.303
269504.000			19.819			-3.303
269605.000			19.819			-3.303
269704.000			19.817			-3.303
269804.000			19.816			-3.303
269904.000			19.817			-3.303
270004.000			19.817			-3.303
270103.000			19.816			-3.303
270205.000			19.817			-3.303
270304.000			19.817			-3.303
270404.000			19.816			-3.303
270505.000			19.816			-3.303
270604.000			19.815			-3.303
270704.000			19.815			-3.302
270804.000			19.815			-3.303
270904.000			19.815			-3.303
271003.000			19.814			-3.302
271105.000			19.814			-3.302
271204.000			19.814			-3.302
271304.000			19.814			-3.302
271405.000			19.814			-3.302
271504.000			19.813			-3.302
271605.000			19.813			-3.302
271703.000			19.813			-3.302
271804.000			19.812			-3.302
271904.000			19.812			-3.302
272004.000			19.812			-3.302
272104.000			19.811			-3.302
272205.000			19.810			-3.302
272304.000			19.810			-3.302
272404.000			19.811			-3.302
272505.000			19.811			-3.302
272603.000			19.811			-3.302
272704.000			19.811			-3.302
272804.000			19.810			-3.302
272904.000			19.810			-3.302
273004.000			19.811			-3.302
273105.000			19.810			-3.302
273204.000			19.809			-3.302
273304.000			19.809			-3.301
273405.000			19.808			-3.301
273503.000			19.808			-3.301
273604.000			19.808			-3.301
273704.000			19.808			-3.301
273804.000			19.808			-3.301
273904.000			19.808			-3.301
274005.000			19.806			-3.301
274104.000			19.806			-3.301
274204.000			19.806			-3.301
274305.000			19.807			-3.301
274404.000			19.807			-3.301
274504.000			19.806			-3.301
274603.000			19.807			-3.301
274704.000			19.806			-3.301
274805.000			19.805			-3.301
274904.000			19.805			-3.301
275004.000			19.805			-3.301
275105.000			19.803			-3.301
275204.000			19.805			-3.301
275304.000			19.805			-3.301
275405.000			19.804			-3.301
275503.000			19.803			-3.301
275604.000			19.802			-3.300
275705.000			19.803			-3.300
275804.000			19.802			-3.300
275904.000			19.802			-3.300
276005.000			19.802			-3.300
276104.000			19.801			-3.300
276204.000			19.801			-3.300
276305.000			19.803			-3.301
276403.000			19.801			-3.300
276504.000			19.800			-3.300
276605.000			19.800			-3.300
276704.000			19.800			-3.300
276804.000			19.800			-3.300
276905.000			19.800			-3.300
277004.000			19.800			-3.300
277104.000			19.799			-3.300
277205.000			19.799			-3.300
277303.000			19.798			-3.300
277404.000			19.799			-3.300
277504.000			19.799			-3.300
277604.000			19.799			-3.300
277704.000			19.798			-3.300
277804.000			19.797			-3.299
277904.000			19.797			-3.299
278005.000			19.797			-3.300
278104.000			19.797			-3.300
278204.000			19.797			-3.299
278305.000			19.796			-3.299
278403.000			19.797			-3.300
278504.000			19.797			-3.299
278604.000			19.795			-3.299
278704.000			19.795			-3.299
278804.000			19.796			-3.299
278905.000			19.796			-3.299
279004.000			19.794			-3.299
279104.000			19.794			-3.299
279205.000			19.794			-3.299
279304.000			19.794			-3.299
279404.000			19.794			-3.299
279504.000			19.793			-3.299
279604.000			19.793			-3.299
279703.000			19.794			-3.299
279805.000			19.794			-3.299
279904.000			19.793			-3.299
280004.000			19.793			-3.299
280105.000			19.792			-3.299
280204.000			19.793			-3.299
280304.000			19.792			-3.299
280405.000			19.793			-3.299
280504.000			19.792			-3.299
280603.000			19.792			-3.299
280705.000			19.792			-3.299
280804.000			19.791			-3.299
280904.000			19.790			-3.298
281005.000			19.790			-3.298
281104.000			19.791			-3.298
281205.000			19.790			-3.298
281304.000			19.789			-3.298
281404.000			19.790			-3.298
281504.000			19.789			-3.298
281604.000			19.788			-3.298
281703.000			19.788			-3.298
281805.000			19.788			-3.298
281904.000			19.788			-3.298
282004.000			19.788			-3.298
282105.000			19.788			-3.298
282204.000			19.788			-3.298
282304.000			19.788			-3.298
282405.000			19.788			-3.298
282504.000			19.787			-3.298
282603.000			19.787			-3.298
282705.000			19.786			-3.298
282804.000			19.786			-3.298
282904.000			19.786			-3.298
283005.000			19.786			-3.298
283104.000			19.786			-3.298
283204.000			19.787			-3.298
283305.000			19.786			-3.298
283404.000			19.785			-3.297
283503.000			19.783			-3.297
283605.000			19.784			-3.297
283703.000			19.784			-3.297
283804.000			19.784			-3.297
283905.000			19.784			-3.297
284004.000			19.784			-3.297
284104.000			19.784			-3.297
284204.000			19.784			-3.297
284304.000			19.784			-3.297
284405.000			19.783			-3.297
284504.000			19.783			-3.297
284603.000			19.783			-3.297
284705.000			19.783			-3.297
284804.000			19.783			-3.297
284904.000			19.783			-3.297
285005.000			19.782			-3.297
285104.000			19.782			-3.297
285204.000			19.781			-3.297
285305.000			19.780			-3.297
285404.000			19.780			-3.297
285504.000			19.781			-3.297
285605.000			19.781			-3.297
285703.000			19.781			-3.297
285804.000			19.780			-3.297
285905.000			19.779			-3.297
286004.000			19.780			-3.297
286104.000			19.779			-3.296
286205.000			19.779			-3.296
286304.000			19.779			-3.297
286404.000			19.779			-3.296
286505.000			19.778			-3.296
286604.000			19.779			-3.296
286704.000			19.779			-3.296
286804.000			19.778			-3.296
286904.000			19.778			-3.296
287003.000			19.779			-3.296
287105.000			19.777			-3.296
287204.000			19.776			-3.296
287304.000			19.776			-3.296
287405.000			19.777			-3.296
287504.000			19.776			-3.296
287605.000			19.776			-3.296
287704.000			19.776			-3.296
287804.000			19.776			-3.296
287904.000			19.776			-3.296
288004.000			19.775			-3.296
288103.000			19.775			-3.296
288205.000			19.775			-3.296
288304.000			19.775			-3.296
288404.000			19.775			-3.296
288505.000			19.774			-3.296
288604.000			19.774			-3.296
288704.000			19.775			-3.296
288805.000			19.775			-3.296
288904.000			19.774			-3.296
289003.000			19.773			-3.296
289105.000			19.773			-3.295
289204.000			19.772			-3.295
289304.000			19.773			-3.295
289405.000			19.772			-3.295
289504.000			19.773			-3.296
289604.000			19.774			-3.296
289705.000			19.774			-3.296
289804.000			19.773			-3.296
289903.000			19.774			-3.296
290005.000			19.773			-3.296
290103.000			19.772			-3.295
290204.000			19.773			-3.296
290305.000			19.774			-3.296
290404.000			19.774			-3.296
290504.000			19.774			-3.296
290604.000			19.773			-3.296
290704.000			19.772			-3.295
290805.000			19.773			-3.296
290904.000			19.773			-3.296
291003.000			19.773			-3.295
291105.000			19.771			-3.295
291204.000			19.772			-3.295
291304.000			19.773			-3.295
291405.000			19.773			-3.295
291504.000			19.772			-3.295
291604.000			19.771			-3.295
291705.000			19.771			-3.295
291804.000			19.772			-3.295
291903.000			19.771			-3.295
292005.000			19.770			-3.295
292104.000			19.770			-3.295
292204.000			19.770			-3.295
292305.000			19.770			-3.295
292404.000			19.771			-3.295
292504.000			19.770			-3.295
292605.000			19.769			-3.295
292704.000			19.769			-3.295
292803.000			19.769			-3.295
292905.000			19.769			-3.295
293003.000			19.767			-3.295
293104.000			19.767			-3.294
293205.000			19.768			-3.295
293304.000			19.767			-3.295
293404.000			19.767			-3.294
293505.000			19.766			-3.294
293604.000			19.767			-3.294
293704.000			19.765			-3.294
293805.000			19.766			-3.294
293903.000			19.766			-3.294
294005.000			19.764			-3.294
294103.000			19.764			-3.294
294204.000			19.763			-3.294
294305.000			19.764			-3.294
294404.000			19.764			-3.294
294504.000			19.763			-3.294
294605.000			19.763			-3.294
294704.000			19.763			-3.294
294804.000			19.763			-3.294
294905.000			19.763			-3.294
295003.000			19.764			-3.294
295104.000			19.763			-3.294
295205.000			19.763			-3.294
295304.000			19.763			-3.294
295404.000			19.763			-3.294
295505.000			19.764			-3.294
295604.000			19.765			-3.294
295704.000			19.763			-3.294
295805.000			19.764			-3.294
295903.000			19.763			-3.294
296004.000			19.761			-3.294
296104.000			19.760			-3.293
296204.000			19.761			-3.293
296304.000			19.762			-3.294
296405.000			19.762			-3.294
296504.000			19.762			-3.294
296604.000			19.760			-3.293
296705.000			19.761			-3.293
296804.000			19.760			-3.293
296904.000			19.759			-3.293
297003.000			19.759			-3.293
297104.000			19.759			-3.293
297205.000			19.758			-3.293
297304.000			19.760			-3.293
297404.000			19.759			-3.293
297505.000			19.760			-3.293
297604.000			19.759			-3.293
297704.000			19.759			-3.293
297805.000			19.758			-3.293
297904.000			19.758			-3.293
298004.000			19.757			-3.293
298104.000			19.757			-3.293
298204.000			19.757			-3.293
298303.000			19.757			-3.293
298405.000			19.756			-3.293
298504.000			19.756			-3.293
298604.000			19.757			-3.293
298705.000			19.757			-3.293
298804.000			19.757			-3.293
298904.000			19.757			-3.293
299005.000			19.757			-3.293
299104.000			19.758			-3.293
299203.000			19.757			-3.293
299305.000			19.757			-3.293
299404.000			19.757			-3.293
299504.000			19.756			-3.293
299605.000			19.756			-3.293
299704.000			19.756			-3.293
299804.000			19.756			-3.293
299905.000			19.756			-3.293
