# Acquired on 29/01/2024 11:46:11 
# SPIDER: Creep_-10mm_GRPCNT1454A-1
# CREEP MEASUREMENT

# time [ms]		force [N]		stiffness [N/mm]
1.000			40.545			-4.055
105.000			40.937			-4.094
204.000			40.803			-4.080
304.000			40.489			-4.049
405.000			40.254			-4.025
504.000			40.069			-4.007
605.000			39.774			-3.977
703.000			39.650			-3.965
804.000			39.539			-3.954
905.000			39.437			-3.944
1004.000			39.345			-3.934
1104.000			39.260			-3.926
1204.000			39.181			-3.918
1304.000			39.107			-3.911
1404.000			38.975			-3.897
1505.000			38.913			-3.891
1604.000			38.854			-3.885
1704.000			38.798			-3.880
1805.000			38.746			-3.875
1903.000			38.697			-3.870
2004.000			38.650			-3.865
2105.000			38.561			-3.856
2204.000			38.519			-3.852
2304.000			38.478			-3.848
2405.000			38.440			-3.844
2504.000			38.402			-3.840
2603.000			38.366			-3.837
2705.000			38.332			-3.833
2804.000			38.265			-3.827
2904.000			38.232			-3.823
3005.000			38.203			-3.820
3103.000			38.174			-3.817
3204.000			38.145			-3.814
3305.000			38.115			-3.811
3404.000			38.087			-3.809
3504.000			38.035			-3.804
3604.000			38.010			-3.801
3704.000			37.985			-3.799
3804.000			37.961			-3.796
3904.000			37.937			-3.794
4004.000			37.915			-3.791
4105.000			37.892			-3.789
4204.000			37.848			-3.785
4303.000			37.827			-3.783
4405.000			37.806			-3.781
4504.000			37.785			-3.779
4604.000			37.766			-3.777
4705.000			37.747			-3.775
4804.000			37.729			-3.773
4904.000			37.710			-3.771
5004.000			37.672			-3.767
5104.000			37.654			-3.765
5204.000			37.636			-3.764
5305.000			37.619			-3.762
5404.000			37.603			-3.760
5504.000			37.586			-3.759
5605.000			37.569			-3.757
5703.000			37.538			-3.754
5804.000			37.522			-3.752
5905.000			37.507			-3.751
6004.000			37.492			-3.749
6104.000			37.478			-3.748
6205.000			37.463			-3.746
6304.000			37.448			-3.745
6403.000			37.420			-3.742
6505.000			37.406			-3.741
6604.000			37.394			-3.739
6704.000			37.380			-3.738
6805.000			37.367			-3.737
6903.000			37.353			-3.735
7005.000			37.341			-3.734
7104.000			37.314			-3.731
7204.000			37.303			-3.730
7305.000			37.291			-3.729
7404.000			37.278			-3.728
7504.000			37.266			-3.727
7604.000			37.254			-3.725
7704.000			37.242			-3.724
7804.000			37.220			-3.722
7905.000			37.209			-3.721
8004.000			37.197			-3.720
8104.000			37.186			-3.719
8205.000			37.176			-3.718
8303.000			37.165			-3.717
8404.000			37.155			-3.716
8505.000			37.145			-3.714
8604.000			37.124			-3.712
8704.000			37.114			-3.711
8804.000			37.104			-3.710
8904.000			37.093			-3.709
9004.000			37.083			-3.708
9105.000			37.073			-3.707
9204.000			37.063			-3.706
9304.000			37.044			-3.704
9405.000			37.036			-3.704
9503.000			37.027			-3.703
9604.000			37.016			-3.702
9705.000			37.006			-3.701
9804.000			36.999			-3.700
9904.000			36.990			-3.699
10004.000			36.971			-3.697
10104.000			36.963			-3.696
10204.000			36.955			-3.696
10304.000			36.946			-3.695
10404.000			36.936			-3.694
10505.000			36.929			-3.693
10604.000			36.921			-3.692
10704.000			36.912			-3.691
10805.000			36.896			-3.690
10903.000			36.888			-3.689
11004.000			36.879			-3.688
11105.000			36.872			-3.687
11204.000			36.865			-3.687
11304.000			36.856			-3.686
11405.000			36.848			-3.685
11504.000			36.833			-3.683
11603.000			36.825			-3.682
11705.000			36.817			-3.682
11804.000			36.812			-3.681
11904.000			36.804			-3.680
12005.000			36.796			-3.680
12104.000			36.789			-3.679
12204.000			36.775			-3.677
12304.000			36.767			-3.677
12404.000			36.759			-3.676
12504.000			36.753			-3.675
12605.000			36.746			-3.675
12704.000			36.740			-3.674
12804.000			36.733			-3.673
12905.000			36.720			-3.672
13003.000			36.712			-3.671
13104.000			36.706			-3.671
13205.000			36.700			-3.670
13304.000			36.693			-3.669
13405.000			36.686			-3.669
13503.000			36.680			-3.668
13604.000			36.667			-3.667
13705.000			36.659			-3.666
13804.000			36.653			-3.665
13904.000			36.647			-3.665
14005.000			36.641			-3.664
14104.000			36.635			-3.664
14203.000			36.630			-3.663
14305.000			36.623			-3.662
14404.000			36.611			-3.661
14504.000			36.605			-3.661
14605.000			36.599			-3.660
14704.000			36.592			-3.659
14804.000			36.586			-3.659
14904.000			36.580			-3.658
15004.000			36.576			-3.658
15104.000			36.563			-3.656
15205.000			36.558			-3.656
15304.000			36.552			-3.655
15404.000			36.548			-3.655
15505.000			36.542			-3.654
15603.000			36.536			-3.654
15704.000			36.531			-3.653
15805.000			36.520			-3.652
15904.000			36.514			-3.651
16004.000			36.508			-3.651
16105.000			36.502			-3.650
16204.000			36.498			-3.650
16303.000			36.493			-3.649
16405.000			36.488			-3.649
16504.000			36.476			-3.648
16605.000			36.470			-3.647
16704.000			36.466			-3.647
16804.000			36.461			-3.646
16905.000			36.456			-3.646
17003.000			36.452			-3.645
17104.000			36.447			-3.645
17205.000			36.442			-3.644
17304.000			36.432			-3.643
17404.000			36.426			-3.643
17505.000			36.421			-3.642
17604.000			36.416			-3.642
17703.000			36.411			-3.641
17805.000			36.405			-3.640
17904.000			36.401			-3.640
18004.000			36.392			-3.639
18105.000			36.387			-3.639
18204.000			36.382			-3.638
18304.000			36.378			-3.638
18404.000			36.373			-3.637
18504.000			36.369			-3.637
18604.000			36.363			-3.636
18705.000			36.354			-3.635
18804.000			36.351			-3.635
18904.000			36.346			-3.635
19005.000			36.341			-3.634
19104.000			36.336			-3.634
19204.000			36.331			-3.633
19305.000			36.327			-3.633
19404.000			36.319			-3.632
19504.000			36.314			-3.631
19604.000			36.309			-3.631
19704.000			36.303			-3.630
19804.000			36.299			-3.630
19904.000			36.296			-3.630
20004.000			36.291			-3.629
20105.000			36.288			-3.629
20204.000			36.280			-3.628
20304.000			36.275			-3.627
20405.000			36.270			-3.627
20504.000			36.267			-3.627
20604.000			36.262			-3.626
20705.000			36.258			-3.626
20804.000			36.253			-3.625
20904.000			36.245			-3.625
21004.000			36.241			-3.624
21104.000			36.237			-3.624
21204.000			36.234			-3.623
21305.000			36.230			-3.623
21404.000			36.226			-3.623
21504.000			36.221			-3.622
21605.000			36.213			-3.621
21703.000			36.210			-3.621
21804.000			36.205			-3.621
21905.000			36.202			-3.620
22004.000			36.199			-3.620
22104.000			36.193			-3.619
22205.000			36.189			-3.619
22304.000			36.182			-3.618
22403.000			36.179			-3.618
22505.000			36.175			-3.617
22604.000			36.171			-3.617
22704.000			36.168			-3.617
22805.000			36.164			-3.616
22904.000			36.159			-3.616
23005.000			36.151			-3.615
23103.000			36.148			-3.615
23204.000			36.145			-3.614
23305.000			36.141			-3.614
23404.000			36.136			-3.614
23504.000			36.133			-3.613
23604.000			36.130			-3.613
23704.000			36.127			-3.613
23804.000			36.119			-3.612
23905.000			36.115			-3.612
24004.000			36.112			-3.611
24104.000			36.108			-3.611
24205.000			36.105			-3.611
24303.000			36.102			-3.610
24404.000			36.098			-3.610
24505.000			36.092			-3.609
24604.000			36.087			-3.609
24704.000			36.084			-3.608
24805.000			36.081			-3.608
24904.000			36.077			-3.608
25003.000			36.073			-3.607
25105.000			36.070			-3.607
25204.000			36.063			-3.606
25304.000			36.060			-3.606
25405.000			36.057			-3.606
25504.000			36.053			-3.605
25604.000			36.049			-3.605
25704.000			36.046			-3.605
25804.000			36.043			-3.604
25904.000			36.037			-3.604
26004.000			36.033			-3.603
26104.000			36.030			-3.603
26204.000			36.027			-3.603
26304.000			36.025			-3.602
26403.000			36.021			-3.602
26505.000			36.018			-3.602
26604.000			36.015			-3.601
26704.000			36.007			-3.601
26805.000			36.004			-3.600
26903.000			36.001			-3.600
27004.000			35.998			-3.600
27105.000			35.995			-3.600
27204.000			35.991			-3.599
27304.000			35.987			-3.599
27405.000			35.982			-3.598
27504.000			35.979			-3.598
27604.000			35.977			-3.598
27705.000			35.973			-3.597
27803.000			35.971			-3.597
27904.000			35.967			-3.597
28005.000			35.964			-3.596
28104.000			35.958			-3.596
28204.000			35.954			-3.595
28305.000			35.952			-3.595
28404.000			35.949			-3.595
28503.000			35.946			-3.595
28605.000			35.943			-3.594
28704.000			35.939			-3.594
28804.000			35.935			-3.593
28905.000			35.932			-3.593
29004.000			35.928			-3.593
29104.000			35.925			-3.593
29203.000			35.922			-3.592
29304.000			35.918			-3.592
29405.000			35.915			-3.592
29504.000			35.914			-3.591
29604.000			35.907			-3.591
29705.000			35.905			-3.590
29804.000			35.902			-3.590
29903.000			35.899			-3.590
30005.000			35.896			-3.590
30104.000			35.894			-3.589
30204.000			35.891			-3.589
30305.000			35.885			-3.589
30404.000			35.882			-3.588
30504.000			35.880			-3.588
30604.000			35.877			-3.588
30704.000			35.874			-3.587
30804.000			35.871			-3.587
30905.000			35.868			-3.587
31004.000			35.863			-3.586
31104.000			35.859			-3.586
31205.000			35.857			-3.586
31303.000			35.855			-3.585
31404.000			35.852			-3.585
31505.000			35.849			-3.585
31604.000			35.846			-3.585
31704.000			35.842			-3.584
31805.000			35.838			-3.584
31904.000			35.835			-3.584
32003.000			35.833			-3.583
32105.000			35.831			-3.583
32204.000			35.828			-3.583
32304.000			35.824			-3.582
32405.000			35.822			-3.582
32504.000			35.817			-3.582
32605.000			35.815			-3.582
32703.000			35.812			-3.581
32804.000			35.810			-3.581
32905.000			35.807			-3.581
33004.000			35.804			-3.580
33104.000			35.802			-3.580
33205.000			35.797			-3.580
33304.000			35.795			-3.579
33403.000			35.792			-3.579
33505.000			35.788			-3.579
33604.000			35.786			-3.579
33704.000			35.784			-3.578
33805.000			35.781			-3.578
33904.000			35.776			-3.578
34004.000			35.773			-3.577
34104.000			35.771			-3.577
34204.000			35.768			-3.577
34304.000			35.766			-3.577
34405.000			35.764			-3.576
34504.000			35.762			-3.576
34604.000			35.756			-3.576
34705.000			35.754			-3.575
34803.000			35.751			-3.575
34904.000			35.749			-3.575
35005.000			35.748			-3.575
35104.000			35.745			-3.575
35204.000			35.741			-3.574
35305.000			35.739			-3.574
35404.000			35.735			-3.573
35503.000			35.733			-3.573
35605.000			35.730			-3.573
35704.000			35.727			-3.573
35805.000			35.724			-3.572
35904.000			35.722			-3.572
36004.000			35.719			-3.572
36105.000			35.716			-3.572
36203.000			35.713			-3.571
36304.000			35.711			-3.571
36405.000			35.709			-3.571
36504.000			35.707			-3.571
36604.000			35.705			-3.570
36705.000			35.702			-3.570
36804.000			35.698			-3.570
36903.000			35.696			-3.570
37005.000			35.694			-3.569
37104.000			35.690			-3.569
37204.000			35.687			-3.569
37305.000			35.686			-3.569
37404.000			35.682			-3.568
37504.000			35.677			-3.568
37604.000			35.676			-3.568
37704.000			35.674			-3.567
37804.000			35.672			-3.567
37905.000			35.670			-3.567
38004.000			35.667			-3.567
38104.000			35.665			-3.567
38205.000			35.663			-3.566
38303.000			35.659			-3.566
38404.000			35.658			-3.566
38505.000			35.655			-3.565
38604.000			35.651			-3.565
38704.000			35.649			-3.565
38804.000			35.648			-3.565
38904.000			35.646			-3.565
39004.000			35.640			-3.564
39104.000			35.639			-3.564
39204.000			35.637			-3.564
39305.000			35.634			-3.563
39404.000			35.633			-3.563
39504.000			35.631			-3.563
39605.000			35.628			-3.563
39703.000			35.623			-3.562
39804.000			35.621			-3.562
39905.000			35.620			-3.562
40004.000			35.619			-3.562
40104.000			35.616			-3.562
40205.000			35.613			-3.561
40304.000			35.611			-3.561
40403.000			35.607			-3.561
40505.000			35.605			-3.561
40604.000			35.602			-3.560
40704.000			35.600			-3.560
40805.000			35.598			-3.560
40904.000			35.597			-3.560
41004.000			35.594			-3.559
41104.000			35.592			-3.559
41204.000			35.589			-3.559
41304.000			35.587			-3.559
41405.000			35.584			-3.558
41504.000			35.583			-3.558
41603.000			35.580			-3.558
41705.000			35.578			-3.558
41804.000			35.577			-3.558
41904.000			35.571			-3.557
42005.000			35.571			-3.557
42104.000			35.568			-3.557
42205.000			35.566			-3.557
42304.000			35.564			-3.556
42404.000			35.562			-3.556
42504.000			35.560			-3.556
42604.000			35.556			-3.556
42704.000			35.553			-3.555
42805.000			35.552			-3.555
42904.000			35.550			-3.555
43003.000			35.547			-3.555
43105.000			35.546			-3.555
43204.000			35.544			-3.554
43304.000			35.539			-3.554
43405.000			35.538			-3.554
43504.000			35.536			-3.554
43604.000			35.534			-3.553
43704.000			35.533			-3.553
43804.000			35.531			-3.553
43904.000			35.529			-3.553
44005.000			35.525			-3.552
44104.000			35.522			-3.552
44204.000			35.521			-3.552
44305.000			35.519			-3.552
44403.000			35.517			-3.552
44504.000			35.516			-3.552
44605.000			35.512			-3.551
44704.000			35.511			-3.551
44804.000			35.507			-3.551
44905.000			35.506			-3.551
45004.000			35.505			-3.550
45103.000			35.503			-3.550
45205.000			35.500			-3.550
45304.000			35.498			-3.550
45405.000			35.497			-3.550
45504.000			35.492			-3.549
45604.000			35.490			-3.549
45705.000			35.489			-3.549
45803.000			35.486			-3.549
45904.000			35.484			-3.548
46005.000			35.484			-3.548
46104.000			35.482			-3.548
46204.000			35.478			-3.548
46305.000			35.477			-3.548
46404.000			35.474			-3.547
46503.000			35.472			-3.547
46605.000			35.471			-3.547
46704.000			35.469			-3.547
46804.000			35.467			-3.547
46905.000			35.463			-3.546
47004.000			35.462			-3.546
47104.000			35.460			-3.546
47204.000			35.457			-3.546
47304.000			35.456			-3.546
47404.000			35.453			-3.545
47505.000			35.452			-3.545
47604.000			35.451			-3.545
47704.000			35.447			-3.545
47805.000			35.445			-3.545
47903.000			35.443			-3.544
48004.000			35.442			-3.544
48105.000			35.441			-3.544
48204.000			35.438			-3.544
48304.000			35.436			-3.544
48404.000			35.432			-3.543
48504.000			35.430			-3.543
48604.000			35.429			-3.543
48704.000			35.428			-3.543
48804.000			35.426			-3.543
48905.000			35.425			-3.542
49004.000			35.422			-3.542
49104.000			35.419			-3.542
49205.000			35.417			-3.542
49303.000			35.416			-3.542
49404.000			35.413			-3.541
49505.000			35.412			-3.541
49604.000			35.411			-3.541
49704.000			35.410			-3.541
49805.000			35.406			-3.541
49904.000			35.404			-3.540
50003.000			35.402			-3.540
50105.000			35.401			-3.540
50204.000			35.399			-3.540
50304.000			35.397			-3.540
50405.000			35.396			-3.540
50503.000			35.394			-3.539
50604.000			35.390			-3.539
50704.000			35.388			-3.539
50804.000			35.387			-3.539
50904.000			35.385			-3.538
51005.000			35.384			-3.538
51104.000			35.381			-3.538
51203.000			35.380			-3.538
51305.000			35.376			-3.538
51404.000			35.375			-3.537
51504.000			35.373			-3.537
51605.000			35.372			-3.537
51704.000			35.370			-3.537
51805.000			35.368			-3.537
51903.000			35.366			-3.537
52004.000			35.364			-3.536
52105.000			35.361			-3.536
52204.000			35.360			-3.536
52304.000			35.358			-3.536
52405.000			35.357			-3.536
52504.000			35.357			-3.536
52603.000			35.356			-3.536
52705.000			35.351			-3.535
52804.000			35.349			-3.535
52904.000			35.348			-3.535
53005.000			35.345			-3.535
53104.000			35.343			-3.534
53204.000			35.342			-3.534
53304.000			35.342			-3.534
53404.000			35.341			-3.534
53504.000			35.337			-3.534
53605.000			35.334			-3.533
53704.000			35.333			-3.533
53804.000			35.333			-3.533
53905.000			35.331			-3.533
54003.000			35.329			-3.533
54104.000			35.327			-3.533
54205.000			35.323			-3.532
54304.000			35.323			-3.532
54404.000			35.321			-3.532
54504.000			35.319			-3.532
54604.000			35.317			-3.532
54703.000			35.316			-3.532
54805.000			35.315			-3.532
54904.000			35.312			-3.531
55005.000			35.310			-3.531
55104.000			35.309			-3.531
55203.000			35.307			-3.531
55305.000			35.305			-3.531
55404.000			35.304			-3.530
55504.000			35.302			-3.530
55605.000			35.298			-3.530
55704.000			35.298			-3.530
55804.000			35.296			-3.530
55904.000			35.294			-3.529
56004.000			35.292			-3.529
56104.000			35.292			-3.529
56205.000			35.290			-3.529
56304.000			35.288			-3.529
56404.000			35.286			-3.529
56505.000			35.285			-3.528
56603.000			35.283			-3.528
56704.000			35.281			-3.528
56805.000			35.279			-3.528
56904.000			35.278			-3.528
57004.000			35.277			-3.528
57105.000			35.274			-3.527
57204.000			35.272			-3.527
57303.000			35.270			-3.527
57405.000			35.270			-3.527
57504.000			35.268			-3.527
57604.000			35.267			-3.527
57705.000			35.265			-3.527
57804.000			35.262			-3.526
57904.000			35.262			-3.526
58003.000			35.260			-3.526
58104.000			35.257			-3.526
58205.000			35.256			-3.526
58304.000			35.255			-3.525
58404.000			35.253			-3.525
58505.000			35.250			-3.525
58604.000			35.249			-3.525
58703.000			35.248			-3.525
58805.000			35.246			-3.525
58904.000			35.244			-3.524
59004.000			35.242			-3.524
59105.000			35.241			-3.524
59204.000			35.240			-3.524
59304.000			35.237			-3.524
59404.000			35.235			-3.524
59504.000			35.235			-3.523
59604.000			35.233			-3.523
59705.000			35.232			-3.523
59804.000			35.229			-3.523
59904.000			35.227			-3.523
60005.000			35.224			-3.522
60103.000			35.224			-3.522
60204.000			35.222			-3.522
60305.000			35.221			-3.522
60404.000			35.221			-3.522
60504.000			35.219			-3.522
60604.000			35.218			-3.522
60704.000			35.215			-3.521
60804.000			35.213			-3.521
60905.000			35.211			-3.521
61004.000			35.210			-3.521
61104.000			35.209			-3.521
61205.000			35.208			-3.521
61303.000			35.206			-3.521
61405.000			35.204			-3.520
61504.000			35.202			-3.520
61604.000			35.201			-3.520
61705.000			35.199			-3.520
61804.000			35.198			-3.520
61904.000			35.197			-3.520
62004.000			35.196			-3.520
62104.000			35.196			-3.520
62204.000			35.191			-3.519
62305.000			35.191			-3.519
62404.000			35.189			-3.519
62504.000			35.187			-3.519
62605.000			35.187			-3.519
62703.000			35.185			-3.518
62804.000			35.182			-3.518
62905.000			35.181			-3.518
63004.000			35.179			-3.518
63104.000			35.178			-3.518
63204.000			35.176			-3.518
63304.000			35.175			-3.518
63403.000			35.174			-3.517
63505.000			35.173			-3.517
63604.000			35.170			-3.517
63704.000			35.169			-3.517
63805.000			35.167			-3.517
63904.000			35.166			-3.517
64004.000			35.165			-3.517
64104.000			35.164			-3.516
64204.000			35.162			-3.516
64304.000			35.159			-3.516
64404.000			35.158			-3.516
64504.000			35.157			-3.516
64605.000			35.155			-3.516
64704.000			35.153			-3.515
64803.000			35.153			-3.515
64905.000			35.151			-3.515
65004.000			35.149			-3.515
65104.000			35.147			-3.515
65205.000			35.145			-3.515
65304.000			35.144			-3.514
65404.000			35.143			-3.514
65504.000			35.143			-3.514
65604.000			35.141			-3.514
65704.000			35.140			-3.514
65805.000			35.138			-3.514
65904.000			35.136			-3.514
66004.000			35.134			-3.513
66105.000			35.133			-3.513
66203.000			35.131			-3.513
66304.000			35.130			-3.513
66405.000			35.129			-3.513
66504.000			35.126			-3.513
66604.000			35.126			-3.513
66704.000			35.124			-3.512
66804.000			35.122			-3.512
66903.000			35.121			-3.512
67005.000			35.120			-3.512
67104.000			35.119			-3.512
67204.000			35.117			-3.512
67305.000			35.116			-3.512
67403.000			35.114			-3.511
67504.000			35.112			-3.511
67605.000			35.111			-3.511
67704.000			35.110			-3.511
67805.000			35.108			-3.511
67904.000			35.107			-3.511
68004.000			35.105			-3.511
68104.000			35.103			-3.510
68204.000			35.102			-3.510
68304.000			35.102			-3.510
68405.000			35.100			-3.510
68504.000			35.099			-3.510
68604.000			35.098			-3.510
68705.000			35.095			-3.509
68803.000			35.094			-3.509
68904.000			35.092			-3.509
69005.000			35.092			-3.509
69104.000			35.091			-3.509
69204.000			35.089			-3.509
69305.000			35.087			-3.509
69404.000			35.085			-3.509
69503.000			35.084			-3.508
69605.000			35.082			-3.508
69704.000			35.081			-3.508
69804.000			35.080			-3.508
69905.000			35.079			-3.508
70004.000			35.078			-3.508
70104.000			35.076			-3.508
70204.000			35.075			-3.507
70304.000			35.074			-3.507
70404.000			35.073			-3.507
70505.000			35.071			-3.507
70604.000			35.069			-3.507
70704.000			35.068			-3.507
70805.000			35.066			-3.507
70903.000			35.064			-3.506
71005.000			35.064			-3.506
71104.000			35.063			-3.506
71204.000			35.062			-3.506
71305.000			35.061			-3.506
71404.000			35.060			-3.506
71504.000			35.059			-3.506
71604.000			35.056			-3.506
71704.000			35.056			-3.506
71804.000			35.054			-3.505
71905.000			35.053			-3.505
72004.000			35.051			-3.505
72104.000			35.049			-3.505
72205.000			35.048			-3.505
72303.000			35.047			-3.505
72404.000			35.046			-3.505
72505.000			35.044			-3.504
72604.000			35.042			-3.504
72704.000			35.041			-3.504
72805.000			35.041			-3.504
72904.000			35.039			-3.504
73003.000			35.037			-3.504
73105.000			35.036			-3.504
73204.000			35.035			-3.504
73304.000			35.034			-3.503
73405.000			35.033			-3.503
73504.000			35.031			-3.503
73604.000			35.030			-3.503
73704.000			35.028			-3.503
73804.000			35.026			-3.503
73904.000			35.026			-3.503
74004.000			35.025			-3.503
74104.000			35.023			-3.502
74204.000			35.022			-3.502
74304.000			35.021			-3.502
74403.000			35.019			-3.502
74505.000			35.017			-3.502
74604.000			35.016			-3.502
74704.000			35.015			-3.501
74805.000			35.014			-3.501
74903.000			35.014			-3.501
75004.000			35.013			-3.501
75105.000			35.012			-3.501
75204.000			35.008			-3.501
75304.000			35.007			-3.501
75405.000			35.006			-3.501
75504.000			35.005			-3.501
75603.000			35.004			-3.500
75705.000			35.002			-3.500
75804.000			35.001			-3.500
75904.000			34.999			-3.500
76005.000			34.998			-3.500
76104.000			34.998			-3.500
76204.000			34.997			-3.500
76304.000			34.995			-3.500
76404.000			34.993			-3.499
76503.000			34.992			-3.499
76605.000			34.990			-3.499
76704.000			34.989			-3.499
76804.000			34.988			-3.499
76905.000			34.987			-3.499
77004.000			34.986			-3.499
77104.000			34.984			-3.498
77203.000			34.984			-3.498
77304.000			34.982			-3.498
77405.000			34.981			-3.498
77504.000			34.979			-3.498
77604.000			34.979			-3.498
77705.000			34.977			-3.498
77804.000			34.976			-3.498
77903.000			34.975			-3.497
78005.000			34.974			-3.497
78104.000			34.972			-3.497
78204.000			34.971			-3.497
78305.000			34.971			-3.497
78404.000			34.969			-3.497
78504.000			34.968			-3.497
78604.000			34.967			-3.497
78704.000			34.966			-3.497
78803.000			34.964			-3.496
78905.000			34.961			-3.496
79004.000			34.962			-3.496
79104.000			34.961			-3.496
79205.000			34.958			-3.496
79304.000			34.958			-3.496
79404.000			34.958			-3.496
79504.000			34.955			-3.495
79604.000			34.953			-3.495
79704.000			34.953			-3.495
79805.000			34.953			-3.495
79904.000			34.951			-3.495
80004.000			34.950			-3.495
80105.000			34.949			-3.495
80203.000			34.948			-3.495
80304.000			34.946			-3.495
80405.000			34.945			-3.494
80504.000			34.943			-3.494
80605.000			34.941			-3.494
80704.000			34.940			-3.494
80804.000			34.940			-3.494
80904.000			34.939			-3.494
81004.000			34.936			-3.494
81104.000			34.936			-3.494
81205.000			34.935			-3.494
81304.000			34.934			-3.493
81404.000			34.933			-3.493
81505.000			34.932			-3.493
81603.000			34.932			-3.493
81704.000			34.930			-3.493
81805.000			34.928			-3.493
81904.000			34.927			-3.493
82004.000			34.926			-3.493
82105.000			34.925			-3.492
82204.000			34.923			-3.492
82303.000			34.923			-3.492
82405.000			34.921			-3.492
82504.000			34.920			-3.492
82604.000			34.918			-3.492
82705.000			34.917			-3.492
82804.000			34.916			-3.492
82904.000			34.914			-3.491
83004.000			34.913			-3.491
83104.000			34.913			-3.491
83204.000			34.911			-3.491
83305.000			34.910			-3.491
83404.000			34.909			-3.491
83504.000			34.907			-3.491
83605.000			34.907			-3.491
83703.000			34.906			-3.491
83805.000			34.904			-3.490
83904.000			34.902			-3.490
84004.000			34.902			-3.490
84105.000			34.901			-3.490
84204.000			34.900			-3.490
84304.000			34.900			-3.490
84404.000			34.898			-3.490
84504.000			34.896			-3.490
84603.000			34.894			-3.489
84705.000			34.893			-3.489
84804.000			34.892			-3.489
84904.000			34.892			-3.489
85005.000			34.892			-3.489
85104.000			34.891			-3.489
85204.000			34.890			-3.489
85304.000			34.888			-3.489
85404.000			34.886			-3.489
85504.000			34.886			-3.489
85605.000			34.884			-3.488
85704.000			34.883			-3.488
85804.000			34.882			-3.488
85905.000			34.880			-3.488
86003.000			34.880			-3.488
86104.000			34.878			-3.488
86205.000			34.877			-3.488
86304.000			34.876			-3.488
86404.000			34.875			-3.488
86505.000			34.874			-3.487
86604.000			34.873			-3.487
86703.000			34.872			-3.487
86805.000			34.869			-3.487
86904.000			34.870			-3.487
87005.000			34.868			-3.487
87104.000			34.868			-3.487
87204.000			34.867			-3.487
87305.000			34.866			-3.487
87404.000			34.864			-3.486
87504.000			34.863			-3.486
87604.000			34.862			-3.486
87704.000			34.861			-3.486
87804.000			34.859			-3.486
87905.000			34.859			-3.486
88004.000			34.857			-3.486
88104.000			34.856			-3.486
88205.000			34.855			-3.485
88303.000			34.853			-3.485
88404.000			34.853			-3.485
88505.000			34.852			-3.485
88604.000			34.851			-3.485
88704.000			34.851			-3.485
88805.000			34.849			-3.485
88904.000			34.848			-3.485
89003.000			34.847			-3.485
89105.000			34.845			-3.485
89204.000			34.844			-3.484
89304.000			34.844			-3.484
89405.000			34.843			-3.484
89504.000			34.842			-3.484
89604.000			34.841			-3.484
89704.000			34.839			-3.484
89804.000			34.839			-3.484
89903.000			34.837			-3.484
90005.000			34.836			-3.484
90104.000			34.835			-3.484
90205.000			34.834			-3.483
90304.000			34.833			-3.483
90404.000			34.831			-3.483
90505.000			34.830			-3.483
90603.000			34.828			-3.483
90704.000			34.828			-3.483
90805.000			34.827			-3.483
90904.000			34.825			-3.483
91004.000			34.825			-3.482
91105.000			34.825			-3.482
91204.000			34.823			-3.482
91303.000			34.822			-3.482
91405.000			34.821			-3.482
91504.000			34.820			-3.482
91604.000			34.819			-3.482
91705.000			34.817			-3.482
91804.000			34.817			-3.482
91904.000			34.816			-3.482
92004.000			34.816			-3.482
92104.000			34.814			-3.481
92204.000			34.813			-3.481
92305.000			34.812			-3.481
92404.000			34.811			-3.481
92504.000			34.811			-3.481
92605.000			34.808			-3.481
92703.000			34.807			-3.481
92804.000			34.807			-3.481
92905.000			34.806			-3.481
93004.000			34.805			-3.480
93104.000			34.803			-3.480
93204.000			34.803			-3.480
93304.000			34.800			-3.480
93404.000			34.800			-3.480
93504.000			34.799			-3.480
93604.000			34.798			-3.480
93705.000			34.798			-3.480
93804.000			34.796			-3.480
93904.000			34.795			-3.480
94005.000			34.794			-3.479
94103.000			34.793			-3.479
94204.000			34.792			-3.479
94305.000			34.791			-3.479
94404.000			34.790			-3.479
94504.000			34.789			-3.479
94605.000			34.787			-3.479
94704.000			34.787			-3.479
94804.000			34.785			-3.479
94905.000			34.784			-3.478
95003.000			34.784			-3.478
95104.000			34.784			-3.478
95205.000			34.782			-3.478
95304.000			34.780			-3.478
95404.000			34.779			-3.478
95505.000			34.779			-3.478
95604.000			34.778			-3.478
95703.000			34.777			-3.478
95805.000			34.776			-3.478
95904.000			34.774			-3.477
96004.000			34.774			-3.477
96105.000			34.773			-3.477
96204.000			34.770			-3.477
96304.000			34.770			-3.477
96403.000			34.769			-3.477
96504.000			34.768			-3.477
96604.000			34.767			-3.477
96704.000			34.766			-3.477
96804.000			34.766			-3.477
96905.000			34.764			-3.476
97004.000			34.764			-3.476
97104.000			34.762			-3.476
97205.000			34.761			-3.476
97303.000			34.760			-3.476
97404.000			34.760			-3.476
97505.000			34.759			-3.476
97604.000			34.757			-3.476
97704.000			34.756			-3.476
97805.000			34.755			-3.476
97904.000			34.755			-3.475
98003.000			34.753			-3.475
98105.000			34.752			-3.475
98204.000			34.751			-3.475
98304.000			34.751			-3.475
98405.000			34.750			-3.475
98504.000			34.749			-3.475
98604.000			34.747			-3.475
98704.000			34.747			-3.475
98804.000			34.746			-3.475
98903.000			34.745			-3.474
99005.000			34.744			-3.474
99104.000			34.743			-3.474
99204.000			34.743			-3.474
99305.000			34.742			-3.474
99404.000			34.742			-3.474
99504.000			34.740			-3.474
99603.000			34.739			-3.474
99704.000			34.738			-3.474
99805.000			34.736			-3.474
99904.000			34.735			-3.474
100004.000			34.735			-3.473
100105.000			34.733			-3.473
100204.000			34.732			-3.473
100303.000			34.731			-3.473
100405.000			34.731			-3.473
100504.000			34.729			-3.473
100604.000			34.728			-3.473
100705.000			34.727			-3.473
100804.000			34.726			-3.473
100904.000			34.726			-3.473
101004.000			34.726			-3.473
101104.000			34.725			-3.473
101204.000			34.722			-3.472
101305.000			34.722			-3.472
101404.000			34.721			-3.472
101504.000			34.720			-3.472
101605.000			34.718			-3.472
101703.000			34.718			-3.472
101804.000			34.718			-3.472
101904.000			34.717			-3.472
102004.000			34.714			-3.471
102104.000			34.714			-3.471
102205.000			34.713			-3.471
102304.000			34.713			-3.471
102404.000			34.711			-3.471
102505.000			34.710			-3.471
102603.000			34.709			-3.471
102704.000			34.708			-3.471
102805.000			34.707			-3.471
102904.000			34.706			-3.471
103005.000			34.705			-3.471
103104.000			34.704			-3.470
103204.000			34.704			-3.470
103304.000			34.702			-3.470
103404.000			34.701			-3.470
103504.000			34.700			-3.470
103605.000			34.700			-3.470
103704.000			34.699			-3.470
103804.000			34.699			-3.470
103905.000			34.698			-3.470
104003.000			34.696			-3.470
104104.000			34.696			-3.470
104205.000			34.695			-3.469
104304.000			34.694			-3.469
104404.000			34.692			-3.469
104505.000			34.691			-3.469
104604.000			34.692			-3.469
104703.000			34.689			-3.469
104805.000			34.688			-3.469
104904.000			34.688			-3.469
105004.000			34.687			-3.469
105105.000			34.685			-3.469
105204.000			34.685			-3.468
105304.000			34.686			-3.469
105404.000			34.685			-3.469
105504.000			34.684			-3.468
105603.000			34.680			-3.468
105705.000			34.679			-3.468
105804.000			34.679			-3.468
105904.000			34.679			-3.468
106005.000			34.677			-3.468
106104.000			34.677			-3.468
106205.000			34.675			-3.468
106303.000			34.674			-3.467
106404.000			34.673			-3.467
106505.000			34.673			-3.467
106604.000			34.673			-3.467
106704.000			34.672			-3.467
106805.000			34.671			-3.467
106904.000			34.670			-3.467
107003.000			34.669			-3.467
107105.000			34.667			-3.467
107204.000			34.667			-3.467
107304.000			34.666			-3.467
107405.000			34.664			-3.466
107504.000			34.664			-3.466
107604.000			34.663			-3.466
107704.000			34.663			-3.466
107804.000			34.661			-3.466
107903.000			34.659			-3.466
108005.000			34.659			-3.466
108104.000			34.659			-3.466
108204.000			34.659			-3.466
108305.000			34.657			-3.466
108404.000			34.656			-3.466
108504.000			34.654			-3.465
108604.000			34.654			-3.465
108704.000			34.653			-3.465
108804.000			34.653			-3.465
108905.000			34.652			-3.465
109004.000			34.651			-3.465
109104.000			34.650			-3.465
109205.000			34.649			-3.465
109303.000			34.647			-3.465
109405.000			34.647			-3.465
109504.000			34.646			-3.465
109604.000			34.645			-3.465
109705.000			34.644			-3.464
109804.000			34.643			-3.464
109904.000			34.643			-3.464
110005.000			34.642			-3.464
110104.000			34.642			-3.464
110203.000			34.641			-3.464
110305.000			34.640			-3.464
110404.000			34.640			-3.464
110504.000			34.638			-3.464
110605.000			34.636			-3.464
110704.000			34.635			-3.463
110804.000			34.634			-3.463
110904.000			34.634			-3.463
111004.000			34.632			-3.463
111104.000			34.633			-3.463
111205.000			34.632			-3.463
111304.000			34.630			-3.463
111404.000			34.629			-3.463
111505.000			34.629			-3.463
111603.000			34.628			-3.463
111704.000			34.627			-3.463
111805.000			34.626			-3.463
111904.000			34.625			-3.463
112004.000			34.624			-3.462
112105.000			34.623			-3.462
112204.000			34.622			-3.462
112303.000			34.621			-3.462
112405.000			34.620			-3.462
112504.000			34.620			-3.462
112605.000			34.619			-3.462
112704.000			34.619			-3.462
112804.000			34.618			-3.462
112905.000			34.617			-3.462
113003.000			34.615			-3.462
113104.000			34.615			-3.462
113205.000			34.615			-3.462
113304.000			34.614			-3.461
113404.000			34.613			-3.461
113505.000			5.462			-0.546
113604.000			-48.190			4.819
113703.000			34.610			-3.461
113805.000			34.609			-3.461
113904.000			34.609			-3.461
114004.000			34.608			-3.461
114105.000			34.607			-3.461
114204.000			34.607			-3.461
114304.000			34.604			-3.460
114404.000			34.605			-3.461
114504.000			34.604			-3.460
114604.000			34.602			-3.460
114705.000			34.601			-3.460
114804.000			34.601			-3.460
114904.000			34.599			-3.460
115005.000			34.598			-3.460
115103.000			34.598			-3.460
115204.000			34.596			-3.460
115304.000			34.596			-3.460
115404.000			34.597			-3.460
115504.000			34.597			-3.460
115604.000			34.595			-3.459
115704.000			34.593			-3.459
115805.000			34.591			-3.459
115904.000			34.591			-3.459
116003.000			34.590			-3.459
116105.000			34.590			-3.459
116204.000			34.589			-3.459
116304.000			34.588			-3.459
116405.000			34.586			-3.459
116504.000			34.586			-3.459
116604.000			34.585			-3.459
116704.000			34.584			-3.458
116804.000			34.584			-3.458
116904.000			34.583			-3.458
117005.000			34.583			-3.458
117104.000			34.582			-3.458
117204.000			34.580			-3.458
117305.000			34.580			-3.458
117403.000			34.580			-3.458
117504.000			34.579			-3.458
117604.000			34.578			-3.458
117704.000			34.577			-3.458
117804.000			34.576			-3.458
117905.000			34.575			-3.457
118004.000			34.573			-3.457
118104.000			34.572			-3.457
118205.000			34.572			-3.457
118303.000			34.572			-3.457
118404.000			34.571			-3.457
118505.000			34.571			-3.457
118604.000			34.568			-3.457
118704.000			34.567			-3.457
118804.000			34.566			-3.457
118904.000			34.567			-3.457
119004.000			34.566			-3.457
119104.000			34.564			-3.456
119203.000			34.564			-3.456
119305.000			34.563			-3.456
119404.000			34.563			-3.456
119504.000			34.562			-3.456
119605.000			34.561			-3.456
119704.000			34.560			-3.456
119804.000			34.559			-3.456
119904.000			34.559			-3.456
120004.000			34.558			-3.456
120104.000			34.557			-3.456
120205.000			34.557			-3.456
120304.000			34.556			-3.456
120404.000			34.555			-3.455
120505.000			34.554			-3.455
120603.000			34.553			-3.455
120704.000			34.553			-3.455
120805.000			34.551			-3.455
120904.000			34.550			-3.455
121004.000			34.550			-3.455
121105.000			34.550			-3.455
121204.000			34.548			-3.455
121303.000			34.547			-3.455
121405.000			34.546			-3.455
121504.000			34.545			-3.455
121604.000			34.546			-3.455
121705.000			34.545			-3.454
121804.000			34.544			-3.454
121904.000			34.543			-3.454
122003.000			34.542			-3.454
122104.000			34.542			-3.454
122205.000			34.539			-3.454
122304.000			34.538			-3.454
122404.000			34.538			-3.454
122505.000			34.537			-3.454
122604.000			34.537			-3.454
122703.000			34.536			-3.454
122805.000			34.536			-3.454
122903.000			34.534			-3.453
123004.000			34.534			-3.453
123105.000			34.534			-3.453
123204.000			34.533			-3.453
123304.000			34.533			-3.453
123405.000			34.532			-3.453
123504.000			34.532			-3.453
123603.000			34.530			-3.453
123705.000			34.528			-3.453
123804.000			34.528			-3.453
123904.000			34.528			-3.453
124005.000			34.526			-3.453
124104.000			34.525			-3.453
124204.000			34.525			-3.452
124304.000			34.524			-3.452
124404.000			34.523			-3.452
124504.000			34.523			-3.452
124605.000			34.522			-3.452
124704.000			34.520			-3.452
124804.000			34.519			-3.452
124905.000			34.519			-3.452
125003.000			34.519			-3.452
125104.000			34.517			-3.452
125205.000			34.516			-3.452
125304.000			34.515			-3.451
125405.000			34.514			-3.451
125504.000			34.514			-3.451
125604.000			34.514			-3.451
125704.000			34.514			-3.451
125804.000			34.512			-3.451
125904.000			34.511			-3.451
126005.000			34.510			-3.451
126104.000			34.510			-3.451
126204.000			34.510			-3.451
126305.000			34.509			-3.451
126403.000			34.507			-3.451
126504.000			34.507			-3.451
126604.000			34.507			-3.451
126704.000			34.506			-3.451
126804.000			34.505			-3.450
126905.000			34.504			-3.450
127004.000			34.504			-3.450
127104.000			34.503			-3.450
127205.000			34.502			-3.450
127303.000			34.501			-3.450
127404.000			34.500			-3.450
127505.000			34.499			-3.450
127604.000			34.498			-3.450
127704.000			34.499			-3.450
127805.000			34.498			-3.450
127904.000			34.497			-3.450
128003.000			34.495			-3.450
128105.000			34.495			-3.450
128204.000			34.495			-3.449
128304.000			34.494			-3.449
128405.000			34.493			-3.449
128504.000			34.493			-3.449
128605.000			34.493			-3.449
128704.000			34.491			-3.449
128804.000			34.490			-3.449
128904.000			34.489			-3.449
129004.000			34.488			-3.449
129104.000			34.487			-3.449
129205.000			34.487			-3.449
129304.000			34.487			-3.449
129404.000			34.486			-3.449
129505.000			34.484			-3.448
129603.000			34.483			-3.448
129704.000			34.482			-3.448
129805.000			34.482			-3.448
129904.000			34.482			-3.448
130004.000			34.481			-3.448
130105.000			34.480			-3.448
130204.000			34.479			-3.448
130303.000			34.478			-3.448
130405.000			34.478			-3.448
130504.000			34.478			-3.448
130604.000			34.477			-3.448
130705.000			34.477			-3.448
130804.000			34.475			-3.447
130904.000			34.472			-3.447
131005.000			34.473			-3.447
131104.000			34.473			-3.447
131203.000			34.472			-3.447
131305.000			34.471			-3.447
131404.000			34.470			-3.447
131504.000			34.470			-3.447
131605.000			34.469			-3.447
131704.000			34.468			-3.447
131805.000			34.467			-3.447
131903.000			34.467			-3.447
132004.000			34.467			-3.447
132104.000			34.466			-3.447
132204.000			34.464			-3.446
132304.000			34.463			-3.446
132405.000			34.463			-3.446
132504.000			34.463			-3.446
132604.000			34.461			-3.446
132705.000			34.461			-3.446
132803.000			34.460			-3.446
132904.000			34.459			-3.446
133004.000			34.458			-3.446
133104.000			34.457			-3.446
133204.000			34.456			-3.446
133305.000			34.457			-3.446
133404.000			34.455			-3.446
133504.000			34.455			-3.446
133605.000			34.455			-3.445
133703.000			34.454			-3.445
133804.000			34.453			-3.445
133905.000			34.451			-3.445
134004.000			34.451			-3.445
134104.000			34.450			-3.445
134205.000			34.450			-3.445
134304.000			34.449			-3.445
134404.000			34.449			-3.445
134505.000			34.448			-3.445
134603.000			34.446			-3.445
134704.000			34.445			-3.444
134805.000			34.444			-3.444
134904.000			34.443			-3.444
135005.000			34.443			-3.444
135104.000			34.443			-3.444
135204.000			34.443			-3.444
135305.000			34.441			-3.444
135404.000			34.440			-3.444
135503.000			34.440			-3.444
135605.000			34.439			-3.444
135704.000			34.439			-3.444
135804.000			34.438			-3.444
135905.000			34.437			-3.444
136004.000			34.436			-3.444
136104.000			34.436			-3.444
136205.000			34.435			-3.444
136304.000			34.435			-3.443
136403.000			34.433			-3.443
136505.000			34.433			-3.443
136604.000			34.432			-3.443
136704.000			34.431			-3.443
136805.000			34.430			-3.443
136904.000			34.430			-3.443
137004.000			34.430			-3.443
137104.000			34.429			-3.443
137204.000			34.429			-3.443
137303.000			34.428			-3.443
137405.000			34.426			-3.443
137504.000			34.426			-3.443
137604.000			34.425			-3.443
137705.000			34.424			-3.442
137804.000			34.424			-3.442
137904.000			34.423			-3.442
138004.000			34.423			-3.442
138104.000			34.422			-3.442
138204.000			34.420			-3.442
138304.000			34.420			-3.442
138404.000			34.420			-3.442
138505.000			34.420			-3.442
138604.000			34.419			-3.442
138704.000			34.417			-3.442
138805.000			34.418			-3.442
138904.000			34.416			-3.442
139004.000			34.415			-3.441
139104.000			34.414			-3.441
139204.000			34.414			-3.441
139304.000			34.413			-3.441
139405.000			34.413			-3.441
139504.000			34.411			-3.441
139604.000			34.412			-3.441
139705.000			34.411			-3.441
139803.000			34.409			-3.441
139904.000			34.409			-3.441
140004.000			34.408			-3.441
140104.000			34.408			-3.441
140204.000			34.407			-3.441
140305.000			34.406			-3.441
140404.000			34.405			-3.441
140504.000			34.404			-3.440
140605.000			34.404			-3.440
140703.000			34.404			-3.440
140804.000			34.403			-3.440
140905.000			34.403			-3.440
141004.000			34.403			-3.440
141104.000			34.401			-3.440
141204.000			34.401			-3.440
141304.000			34.400			-3.440
141405.000			34.399			-3.440
141504.000			34.398			-3.440
141603.000			34.398			-3.440
141705.000			34.398			-3.440
141804.000			34.396			-3.440
141904.000			34.395			-3.440
142005.000			34.394			-3.439
142104.000			34.395			-3.439
142204.000			34.394			-3.439
142305.000			34.393			-3.439
142404.000			34.392			-3.439
142503.000			34.390			-3.439
142605.000			34.391			-3.439
142704.000			34.390			-3.439
142804.000			34.389			-3.439
142905.000			34.389			-3.439
143004.000			34.389			-3.439
143104.000			34.388			-3.439
143205.000			34.386			-3.439
143304.000			34.386			-3.439
143403.000			34.386			-3.439
143505.000			34.385			-3.439
143604.000			34.385			-3.439
143704.000			34.384			-3.438
143805.000			34.383			-3.438
143904.000			34.382			-3.438
144004.000			34.380			-3.438
144105.000			34.379			-3.438
144204.000			34.380			-3.438
144303.000			34.379			-3.438
144405.000			34.379			-3.438
144504.000			34.379			-3.438
144605.000			34.379			-3.438
144704.000			34.377			-3.438
144804.000			34.376			-3.438
144905.000			34.376			-3.438
145004.000			34.375			-3.437
145104.000			34.374			-3.437
145204.000			34.373			-3.437
145304.000			34.373			-3.437
145403.000			34.371			-3.437
145505.000			34.371			-3.437
145604.000			34.370			-3.437
145704.000			34.370			-3.437
145805.000			34.369			-3.437
145904.000			34.368			-3.437
146004.000			34.368			-3.437
146104.000			34.367			-3.437
146204.000			34.367			-3.437
146303.000			34.365			-3.437
146405.000			34.364			-3.436
146504.000			34.364			-3.436
146604.000			34.364			-3.436
146705.000			34.363			-3.436
146804.000			34.362			-3.436
146904.000			34.362			-3.436
147004.000			34.360			-3.436
147104.000			34.359			-3.436
147203.000			34.360			-3.436
147305.000			34.360			-3.436
147404.000			34.359			-3.436
147504.000			34.358			-3.436
147605.000			34.356			-3.436
147704.000			34.356			-3.436
147805.000			34.354			-3.435
147903.000			34.355			-3.435
148004.000			34.354			-3.435
148104.000			34.354			-3.435
148204.000			34.354			-3.435
148304.000			34.352			-3.435
148405.000			34.352			-3.435
148504.000			34.352			-3.435
148604.000			34.351			-3.435
148705.000			34.350			-3.435
148803.000			34.349			-3.435
148904.000			34.349			-3.435
149004.000			34.347			-3.435
149104.000			34.347			-3.435
149204.000			34.346			-3.435
149305.000			34.345			-3.435
149404.000			34.345			-3.435
149504.000			34.345			-3.434
149605.000			34.344			-3.434
149703.000			34.344			-3.434
149804.000			34.343			-3.434
149904.000			34.342			-3.434
150004.000			34.342			-3.434
150104.000			34.341			-3.434
150205.000			34.340			-3.434
150304.000			34.340			-3.434
150404.000			34.339			-3.434
150505.000			34.338			-3.434
150603.000			34.336			-3.434
150704.000			34.335			-3.434
150803.000			34.335			-3.433
150904.000			34.335			-3.434
151005.000			34.335			-3.433
151104.000			34.335			-3.433
151204.000			34.332			-3.433
151305.000			34.332			-3.433
151404.000			34.332			-3.433
151503.000			34.331			-3.433
151605.000			34.331			-3.433
151704.000			34.331			-3.433
151804.000			34.329			-3.433
151905.000			34.329			-3.433
152004.000			34.328			-3.433
152104.000			34.327			-3.433
152205.000			34.327			-3.433
152304.000			34.327			-3.433
152403.000			34.326			-3.433
152505.000			34.325			-3.432
152604.000			34.324			-3.432
152704.000			34.323			-3.432
152805.000			34.322			-3.432
152904.000			34.321			-3.432
153004.000			34.321			-3.432
153104.000			34.321			-3.432
153204.000			34.322			-3.432
153303.000			34.321			-3.432
153405.000			34.320			-3.432
153504.000			34.319			-3.432
153604.000			34.318			-3.432
153705.000			34.319			-3.432
153804.000			34.319			-3.432
153904.000			34.317			-3.432
154003.000			34.316			-3.432
154104.000			34.314			-3.431
154204.000			34.313			-3.431
154304.000			34.313			-3.431
154404.000			34.313			-3.431
154505.000			34.313			-3.431
154604.000			34.314			-3.431
154704.000			34.311			-3.431
154805.000			34.310			-3.431
154903.000			34.310			-3.431
155004.000			34.310			-3.431
155105.000			34.308			-3.431
155204.000			34.309			-3.431
155304.000			34.308			-3.431
155405.000			34.307			-3.431
155504.000			34.307			-3.431
155604.000			34.305			-3.431
155705.000			34.304			-3.430
155803.000			34.304			-3.430
155904.000			34.303			-3.430
156005.000			34.303			-3.430
156104.000			34.302			-3.430
156204.000			34.302			-3.430
156305.000			34.302			-3.430
156404.000			34.301			-3.430
156504.000			34.300			-3.430
156605.000			34.299			-3.430
156703.000			34.299			-3.430
156804.000			34.298			-3.430
156905.000			34.297			-3.430
157004.000			34.296			-3.430
157104.000			34.295			-3.429
157204.000			34.294			-3.429
157304.000			34.294			-3.429
157405.000			34.294			-3.429
157504.000			34.294			-3.429
157603.000			34.293			-3.429
157705.000			34.293			-3.429
157804.000			34.291			-3.429
157904.000			34.290			-3.429
158005.000			34.290			-3.429
158104.000			34.290			-3.429
158204.000			34.289			-3.429
158305.000			34.289			-3.429
158404.000			34.289			-3.429
158503.000			34.288			-3.429
158605.000			34.286			-3.429
158704.000			34.286			-3.429
158804.000			34.287			-3.429
158905.000			34.286			-3.429
159004.000			34.285			-3.428
159104.000			34.284			-3.428
159205.000			34.283			-3.428
159304.000			34.282			-3.428
159403.000			34.282			-3.428
159505.000			34.281			-3.428
159603.000			34.281			-3.428
159704.000			34.280			-3.428
159805.000			34.279			-3.428
159904.000			34.279			-3.428
160004.000			34.280			-3.428
160105.000			34.278			-3.428
160204.000			34.277			-3.428
160304.000			34.276			-3.428
160405.000			34.276			-3.428
160503.000			34.275			-3.428
160605.000			34.274			-3.427
160704.000			34.273			-3.427
160804.000			34.274			-3.427
160905.000			34.273			-3.427
161004.000			34.272			-3.427
161104.000			34.272			-3.427
161205.000			34.270			-3.427
161304.000			34.270			-3.427
161403.000			34.270			-3.427
161505.000			34.270			-3.427
161604.000			34.269			-3.427
161704.000			34.268			-3.427
161805.000			34.268			-3.427
161904.000			34.267			-3.427
162004.000			34.267			-3.427
162104.000			34.266			-3.427
162204.000			34.266			-3.427
162303.000			34.264			-3.426
162405.000			34.264			-3.426
162504.000			34.264			-3.426
162604.000			34.263			-3.426
162705.000			34.261			-3.426
162804.000			34.261			-3.426
162904.000			34.261			-3.426
163004.000			34.261			-3.426
163104.000			34.260			-3.426
163203.000			34.259			-3.426
163305.000			34.258			-3.426
163404.000			34.259			-3.426
163504.000			34.258			-3.426
163605.000			34.257			-3.426
163704.000			34.256			-3.426
163805.000			34.255			-3.425
163903.000			34.255			-3.426
164004.000			34.256			-3.426
164104.000			34.254			-3.425
164204.000			34.253			-3.425
164304.000			34.252			-3.425
164405.000			34.251			-3.425
164504.000			34.252			-3.425
164604.000			34.251			-3.425
164705.000			34.250			-3.425
164803.000			34.249			-3.425
164904.000			34.250			-3.425
165004.000			34.248			-3.425
165104.000			34.248			-3.425
165204.000			34.248			-3.425
165305.000			34.248			-3.425
165404.000			34.248			-3.425
165504.000			34.247			-3.425
165605.000			34.245			-3.425
165703.000			34.245			-3.424
165804.000			34.244			-3.424
165904.000			34.244			-3.424
166004.000			34.243			-3.424
166104.000			34.242			-3.424
166205.000			34.241			-3.424
166304.000			34.241			-3.424
166404.000			34.241			-3.424
166505.000			34.240			-3.424
166603.000			34.239			-3.424
166704.000			34.238			-3.424
166803.000			34.238			-3.424
166904.000			34.237			-3.424
167005.000			34.236			-3.424
167104.000			34.237			-3.424
167204.000			34.236			-3.424
167305.000			34.236			-3.424
167404.000			34.235			-3.423
167503.000			34.234			-3.423
167605.000			34.234			-3.423
167703.000			34.233			-3.423
167804.000			34.231			-3.423
167905.000			34.230			-3.423
168004.000			34.231			-3.423
168104.000			34.230			-3.423
168205.000			34.231			-3.423
168304.000			34.229			-3.423
168403.000			34.228			-3.423
168505.000			34.228			-3.423
168603.000			34.227			-3.423
168704.000			34.227			-3.423
168805.000			34.226			-3.423
168904.000			34.226			-3.423
169004.000			34.226			-3.423
169105.000			34.225			-3.422
169204.000			34.224			-3.422
169303.000			34.223			-3.422
169405.000			34.222			-3.422
169503.000			34.222			-3.422
169604.000			34.222			-3.422
169705.000			34.222			-3.422
169804.000			34.220			-3.422
169904.000			34.220			-3.422
170004.000			34.218			-3.422
170104.000			34.217			-3.422
170204.000			34.218			-3.422
170304.000			34.217			-3.422
170403.000			34.217			-3.422
170505.000			34.218			-3.422
170604.000			34.217			-3.422
170704.000			34.214			-3.421
170805.000			34.214			-3.421
170904.000			34.215			-3.421
171004.000			34.214			-3.421
171104.000			34.213			-3.421
171204.000			34.212			-3.421
171304.000			34.212			-3.421
171405.000			34.212			-3.421
171504.000			34.210			-3.421
171604.000			34.210			-3.421
171705.000			34.209			-3.421
171804.000			34.209			-3.421
171904.000			34.209			-3.421
172004.000			34.208			-3.421
172104.000			34.208			-3.421
172204.000			34.207			-3.421
172305.000			34.206			-3.421
172404.000			34.205			-3.420
172504.000			34.205			-3.421
172605.000			34.206			-3.421
172704.000			34.205			-3.420
172804.000			34.205			-3.420
172904.000			34.204			-3.420
173004.000			34.202			-3.420
173104.000			34.202			-3.420
173204.000			34.201			-3.420
173304.000			34.201			-3.420
173405.000			34.199			-3.420
173504.000			34.199			-3.420
173603.000			34.199			-3.420
173705.000			34.198			-3.420
173803.000			34.198			-3.420
173904.000			34.199			-3.420
174005.000			34.198			-3.420
174104.000			34.198			-3.420
174204.000			34.196			-3.420
174305.000			34.195			-3.419
174404.000			34.194			-3.419
174504.000			34.194			-3.419
174605.000			34.193			-3.419
174703.000			34.193			-3.419
174804.000			34.192			-3.419
174905.000			34.191			-3.419
175004.000			34.190			-3.419
175104.000			34.190			-3.419
175205.000			34.189			-3.419
175304.000			34.189			-3.419
175404.000			34.189			-3.419
175505.000			34.188			-3.419
175603.000			34.188			-3.419
175704.000			34.187			-3.419
175805.000			34.187			-3.419
175904.000			34.187			-3.419
176004.000			34.186			-3.419
176105.000			34.185			-3.418
176204.000			34.185			-3.418
176304.000			34.184			-3.418
176405.000			34.184			-3.418
176503.000			34.183			-3.418
176605.000			34.183			-3.418
176704.000			34.182			-3.418
176804.000			34.181			-3.418
176905.000			34.180			-3.418
177004.000			34.179			-3.418
177104.000			34.179			-3.418
177205.000			34.179			-3.418
177304.000			34.179			-3.418
177403.000			34.177			-3.418
177505.000			34.177			-3.418
177603.000			34.177			-3.418
177704.000			34.176			-3.418
177805.000			34.175			-3.418
177904.000			34.176			-3.418
178004.000			34.175			-3.417
178105.000			34.174			-3.417
178204.000			34.174			-3.417
178304.000			34.173			-3.417
178405.000			34.173			-3.417
178503.000			34.173			-3.417
178604.000			34.171			-3.417
178705.000			34.171			-3.417
178804.000			34.171			-3.417
178904.000			34.170			-3.417
179005.000			34.170			-3.417
179104.000			34.169			-3.417
179204.000			34.168			-3.417
179305.000			34.168			-3.417
179403.000			34.166			-3.417
179504.000			34.167			-3.417
179603.000			34.166			-3.417
179704.000			34.166			-3.417
179805.000			34.165			-3.417
179904.000			34.164			-3.416
180004.000			34.164			-3.416
180105.000			34.163			-3.416
180204.000			34.163			-3.416
180303.000			34.163			-3.416
180405.000			34.162			-3.416
180503.000			34.161			-3.416
180604.000			34.161			-3.416
180705.000			34.161			-3.416
180804.000			34.159			-3.416
180904.000			34.158			-3.416
181005.000			34.158			-3.416
181104.000			34.158			-3.416
181203.000			34.157			-3.416
181305.000			34.157			-3.416
181404.000			34.156			-3.416
181504.000			34.156			-3.416
181605.000			34.155			-3.415
181704.000			34.154			-3.415
181804.000			34.154			-3.415
181905.000			34.154			-3.415
182004.000			34.153			-3.415
182103.000			34.153			-3.415
182205.000			34.153			-3.415
182304.000			34.151			-3.415
182404.000			34.151			-3.415
182505.000			34.150			-3.415
182604.000			34.149			-3.415
182704.000			34.149			-3.415
182804.000			34.149			-3.415
182904.000			34.148			-3.415
183004.000			34.148			-3.415
183104.000			34.147			-3.415
183204.000			34.146			-3.415
183305.000			34.145			-3.415
183404.000			34.145			-3.415
183504.000			34.144			-3.414
183605.000			34.144			-3.414
183704.000			34.144			-3.414
183804.000			34.144			-3.414
183904.000			34.144			-3.414
184004.000			34.143			-3.414
184104.000			34.141			-3.414
184205.000			34.141			-3.414
184304.000			34.140			-3.414
184404.000			34.140			-3.414
184505.000			34.140			-3.414
184604.000			34.139			-3.414
184704.000			34.137			-3.414
184804.000			34.137			-3.414
184904.000			34.137			-3.414
185004.000			34.136			-3.414
185105.000			34.136			-3.414
185204.000			34.136			-3.414
185304.000			34.136			-3.414
185405.000			34.136			-3.414
185504.000			34.134			-3.413
185604.000			34.133			-3.413
185704.000			34.133			-3.413
185804.000			34.133			-3.413
185904.000			34.132			-3.413
186004.000			34.132			-3.413
186104.000			34.132			-3.413
186205.000			34.131			-3.413
186304.000			34.130			-3.413
186404.000			34.129			-3.413
186505.000			34.129			-3.413
186603.000			34.128			-3.413
186704.000			34.127			-3.413
186805.000			34.127			-3.413
186904.000			34.126			-3.413
187004.000			34.126			-3.413
187105.000			34.126			-3.413
187204.000			34.126			-3.413
187304.000			34.126			-3.413
187405.000			34.123			-3.412
187503.000			34.123			-3.412
187604.000			34.123			-3.412
187705.000			34.122			-3.412
187804.000			34.123			-3.412
187904.000			34.123			-3.412
188005.000			34.122			-3.412
188104.000			34.120			-3.412
188204.000			34.120			-3.412
188305.000			34.120			-3.412
188403.000			34.120			-3.412
188504.000			34.119			-3.412
188605.000			34.118			-3.412
188704.000			34.118			-3.412
188804.000			34.117			-3.412
188905.000			34.116			-3.412
189004.000			34.115			-3.412
189104.000			34.116			-3.412
189205.000			34.115			-3.412
189303.000			34.114			-3.411
189405.000			34.114			-3.411
189504.000			34.114			-3.411
189604.000			34.113			-3.411
189705.000			34.112			-3.411
189804.000			34.112			-3.411
189904.000			34.111			-3.411
190005.000			34.111			-3.411
190104.000			34.111			-3.411
190203.000			34.110			-3.411
190305.000			34.110			-3.411
190404.000			34.109			-3.411
190504.000			34.108			-3.411
190605.000			34.107			-3.411
190704.000			34.107			-3.411
190804.000			34.106			-3.411
190905.000			34.107			-3.411
191004.000			34.106			-3.411
191103.000			34.105			-3.411
191205.000			34.105			-3.411
191304.000			34.104			-3.410
191404.000			34.103			-3.410
191505.000			34.104			-3.410
191604.000			34.103			-3.410
191704.000			34.102			-3.410
191804.000			34.101			-3.410
191904.000			34.102			-3.410
192003.000			34.101			-3.410
192105.000			34.100			-3.410
192204.000			34.099			-3.410
192304.000			34.099			-3.410
192405.000			34.099			-3.410
192504.000			34.097			-3.410
192605.000			34.097			-3.410
192704.000			34.097			-3.410
192804.000			34.096			-3.410
192904.000			34.096			-3.410
193004.000			34.095			-3.410
193104.000			34.095			-3.410
193205.000			34.095			-3.409
193304.000			34.094			-3.409
193404.000			34.094			-3.409
193505.000			34.093			-3.409
193604.000			34.092			-3.409
193704.000			34.092			-3.409
193804.000			34.091			-3.409
193904.000			34.091			-3.409
194004.000			34.092			-3.409
194105.000			34.091			-3.409
194204.000			34.089			-3.409
194304.000			34.089			-3.409
194405.000			34.088			-3.409
194504.000			34.088			-3.409
194604.000			34.087			-3.409
194704.000			34.087			-3.409
194804.000			34.086			-3.409
194903.000			34.087			-3.409
195005.000			34.086			-3.409
195104.000			34.085			-3.409
195204.000			34.085			-3.409
195305.000			34.086			-3.409
195404.000			34.084			-3.408
195504.000			34.083			-3.408
195603.000			34.083			-3.408
195704.000			34.081			-3.408
195804.000			34.081			-3.408
195904.000			34.081			-3.408
196004.000			34.080			-3.408
196105.000			34.079			-3.408
196204.000			34.079			-3.408
196304.000			34.079			-3.408
196405.000			34.079			-3.408
196503.000			34.079			-3.408
196604.000			34.078			-3.408
196704.000			34.077			-3.408
196804.000			34.076			-3.408
196904.000			34.076			-3.408
197005.000			34.075			-3.408
197104.000			34.076			-3.408
197204.000			34.075			-3.407
197305.000			34.074			-3.407
197404.000			34.074			-3.407
197504.000			34.073			-3.407
197604.000			34.072			-3.407
197704.000			34.072			-3.407
197804.000			34.071			-3.407
197905.000			34.071			-3.407
198004.000			34.072			-3.407
198104.000			34.071			-3.407
198205.000			34.071			-3.407
198304.000			34.069			-3.407
198404.000			34.069			-3.407
198504.000			34.068			-3.407
198604.000			34.067			-3.407
198704.000			34.066			-3.407
198804.000			34.067			-3.407
198904.000			34.067			-3.407
199005.000			34.066			-3.407
199104.000			34.067			-3.407
199204.000			34.067			-3.407
199305.000			34.065			-3.406
199403.000			34.064			-3.406
199504.000			34.064			-3.406
199604.000			34.063			-3.406
199704.000			34.063			-3.406
199804.000			34.062			-3.406
199905.000			34.061			-3.406
200004.000			34.061			-3.406
200104.000			34.061			-3.406
200205.000			34.061			-3.406
200303.000			34.059			-3.406
200404.000			34.059			-3.406
200505.000			34.060			-3.406
200604.000			34.058			-3.406
200704.000			34.058			-3.406
200805.000			34.058			-3.406
200904.000			34.058			-3.406
201004.000			34.057			-3.406
201105.000			34.056			-3.406
201203.000			34.055			-3.406
201304.000			34.055			-3.405
201405.000			34.054			-3.405
201504.000			34.053			-3.405
201604.000			34.053			-3.405
201705.000			34.053			-3.405
201804.000			34.054			-3.405
201903.000			34.051			-3.405
202005.000			34.051			-3.405
202104.000			34.052			-3.405
202205.000			34.050			-3.405
202304.000			34.049			-3.405
202404.000			34.049			-3.405
202505.000			34.049			-3.405
202604.000			34.047			-3.405
202704.000			34.047			-3.405
202804.000			34.047			-3.405
202904.000			34.046			-3.405
203004.000			34.047			-3.405
203105.000			34.047			-3.405
203204.000			34.045			-3.404
203304.000			34.044			-3.404
203405.000			34.045			-3.405
203503.000			34.044			-3.404
203604.000			34.045			-3.404
203704.000			34.044			-3.404
203804.000			34.043			-3.404
203904.000			34.043			-3.404
204005.000			34.043			-3.404
204104.000			34.041			-3.404
204204.000			34.040			-3.404
204305.000			34.040			-3.404
204403.000			34.041			-3.404
204504.000			34.040			-3.404
204605.000			34.039			-3.404
204704.000			34.038			-3.404
204804.000			34.038			-3.404
204905.000			34.037			-3.404
205004.000			34.037			-3.404
205104.000			34.037			-3.404
205205.000			34.036			-3.404
205303.000			34.036			-3.404
205405.000			34.035			-3.404
205504.000			34.034			-3.403
205604.000			34.033			-3.403
205705.000			34.033			-3.403
205804.000			34.032			-3.403
205904.000			34.033			-3.403
206004.000			34.033			-3.403
206104.000			34.032			-3.403
206204.000			34.031			-3.403
206305.000			34.029			-3.403
206404.000			34.029			-3.403
206504.000			34.029			-3.403
206605.000			34.029			-3.403
206704.000			34.029			-3.403
206804.000			34.028			-3.403
206904.000			34.027			-3.403
207004.000			34.028			-3.403
207104.000			34.027			-3.403
207205.000			34.026			-3.403
207304.000			34.026			-3.403
207404.000			34.024			-3.402
207505.000			34.024			-3.402
207603.000			34.024			-3.402
207704.000			34.023			-3.402
207805.000			34.024			-3.402
207904.000			34.024			-3.402
208004.000			34.023			-3.402
208105.000			34.023			-3.402
208204.000			34.022			-3.402
208304.000			34.021			-3.402
208405.000			34.022			-3.402
208503.000			34.021			-3.402
208605.000			34.020			-3.402
208704.000			34.019			-3.402
208804.000			34.020			-3.402
208905.000			34.019			-3.402
209004.000			34.018			-3.402
209104.000			34.017			-3.402
209204.000			34.017			-3.402
209304.000			34.016			-3.402
209403.000			34.015			-3.402
209505.000			34.014			-3.401
209604.000			34.014			-3.401
209704.000			34.013			-3.401
209805.000			34.014			-3.401
209904.000			34.014			-3.401
210004.000			34.012			-3.401
210104.000			34.013			-3.401
210204.000			34.012			-3.401
210304.000			34.012			-3.401
210405.000			34.012			-3.401
210504.000			34.011			-3.401
210604.000			34.009			-3.401
210705.000			34.009			-3.401
210803.000			34.010			-3.401
210904.000			34.009			-3.401
211004.000			34.008			-3.401
211104.000			34.008			-3.401
211204.000			34.008			-3.401
211305.000			34.008			-3.401
211404.000			34.007			-3.401
211504.000			34.006			-3.401
211605.000			34.005			-3.401
211703.000			34.007			-3.401
211805.000			34.006			-3.401
211904.000			34.005			-3.400
212004.000			34.004			-3.400
212105.000			34.003			-3.400
212204.000			34.002			-3.400
212304.000			34.002			-3.400
212404.000			34.001			-3.400
212504.000			34.002			-3.400
212603.000			34.001			-3.400
212705.000			34.001			-3.400
212804.000			33.999			-3.400
212904.000			34.000			-3.400
213005.000			33.999			-3.400
213104.000			33.999			-3.400
213204.000			33.999			-3.400
213304.000			33.999			-3.400
213404.000			33.998			-3.400
213503.000			33.996			-3.400
213605.000			33.996			-3.400
213704.000			33.996			-3.400
213804.000			33.996			-3.400
213905.000			33.995			-3.400
214004.000			33.995			-3.399
214104.000			33.994			-3.399
214204.000			33.994			-3.399
214304.000			33.994			-3.399
214403.000			33.993			-3.399
214505.000			33.993			-3.399
214604.000			33.992			-3.399
214704.000			33.992			-3.399
214805.000			33.991			-3.399
214904.000			33.990			-3.399
215005.000			33.990			-3.399
215104.000			33.989			-3.399
215204.000			33.988			-3.399
215304.000			33.988			-3.399
215404.000			33.988			-3.399
215504.000			33.987			-3.399
215605.000			33.988			-3.399
215704.000			33.986			-3.399
215804.000			33.986			-3.399
215905.000			33.986			-3.399
216004.000			33.985			-3.399
216104.000			33.985			-3.398
216204.000			33.984			-3.398
216304.000			33.984			-3.398
216404.000			33.984			-3.398
216505.000			33.983			-3.398
216604.000			33.982			-3.398
216704.000			33.983			-3.398
216805.000			33.983			-3.398
216904.000			33.982			-3.398
217004.000			33.981			-3.398
217104.000			33.981			-3.398
217204.000			33.979			-3.398
217303.000			33.979			-3.398
217405.000			33.978			-3.398
217504.000			33.978			-3.398
217604.000			33.979			-3.398
217705.000			33.979			-3.398
217804.000			33.978			-3.398
217904.000			33.978			-3.398
218004.000			33.977			-3.398
218104.000			33.976			-3.398
218204.000			33.974			-3.397
218304.000			33.975			-3.398
218404.000			33.975			-3.398
218505.000			33.975			-3.397
218604.000			33.974			-3.397
218704.000			33.973			-3.397
218805.000			33.972			-3.397
218904.000			33.973			-3.397
219004.000			33.972			-3.397
219104.000			33.972			-3.397
219204.000			33.972			-3.397
219304.000			33.971			-3.397
219405.000			33.970			-3.397
219504.000			33.969			-3.397
219604.000			33.970			-3.397
219705.000			33.969			-3.397
219804.000			33.968			-3.397
219904.000			33.968			-3.397
220004.000			33.967			-3.397
220104.000			33.966			-3.397
220203.000			33.966			-3.397
220305.000			33.967			-3.397
220404.000			33.966			-3.397
220504.000			33.965			-3.396
220605.000			33.965			-3.397
220704.000			33.965			-3.397
220804.000			33.964			-3.396
220904.000			33.964			-3.396
221004.000			33.963			-3.396
221103.000			33.962			-3.396
221205.000			33.961			-3.396
221304.000			33.961			-3.396
221405.000			33.961			-3.396
221504.000			33.961			-3.396
221604.000			33.961			-3.396
221705.000			33.961			-3.396
221803.000			33.961			-3.396
221904.000			33.959			-3.396
222005.000			33.958			-3.396
222104.000			33.958			-3.396
222204.000			33.957			-3.396
222305.000			33.957			-3.396
222404.000			33.956			-3.396
222504.000			33.955			-3.396
222605.000			33.955			-3.396
222703.000			33.955			-3.395
222804.000			33.955			-3.395
222905.000			33.954			-3.395
223004.000			33.954			-3.395
223104.000			33.953			-3.395
223205.000			33.953			-3.395
223304.000			33.953			-3.395
223404.000			33.953			-3.395
223505.000			33.953			-3.395
223603.000			33.952			-3.395
223704.000			33.951			-3.395
223805.000			33.950			-3.395
223904.000			33.949			-3.395
224004.000			33.950			-3.395
224105.000			33.949			-3.395
224204.000			33.948			-3.395
224304.000			33.949			-3.395
224405.000			33.947			-3.395
224503.000			33.947			-3.395
224605.000			33.946			-3.395
224704.000			33.946			-3.395
224804.000			33.946			-3.395
224905.000			33.946			-3.395
225004.000			33.945			-3.394
225104.000			33.944			-3.394
225205.000			33.943			-3.394
225304.000			33.944			-3.394
225403.000			33.943			-3.394
225505.000			33.943			-3.394
225604.000			33.943			-3.394
225704.000			33.942			-3.394
225805.000			33.942			-3.394
225904.000			33.941			-3.394
226004.000			33.941			-3.394
226105.000			33.941			-3.394
226204.000			33.940			-3.394
226303.000			33.940			-3.394
226405.000			33.940			-3.394
226504.000			33.940			-3.394
226604.000			33.938			-3.394
226705.000			33.938			-3.394
226804.000			33.938			-3.394
226904.000			33.937			-3.394
227005.000			33.936			-3.394
227104.000			33.936			-3.394
227203.000			33.936			-3.394
227305.000			33.935			-3.393
227403.000			33.934			-3.393
227504.000			33.934			-3.393
227605.000			33.933			-3.393
227704.000			33.933			-3.393
227805.000			33.932			-3.393
227904.000			33.932			-3.393
228004.000			33.932			-3.393
228104.000			33.932			-3.393
228204.000			33.931			-3.393
228303.000			33.931			-3.393
228405.000			33.930			-3.393
228504.000			33.930			-3.393
228604.000			33.930			-3.393
228705.000			33.930			-3.393
228804.000			33.929			-3.393
228904.000			33.929			-3.393
229004.000			33.928			-3.393
229104.000			33.927			-3.393
229203.000			33.927			-3.393
229305.000			33.927			-3.393
229404.000			33.926			-3.393
229504.000			33.926			-3.393
229605.000			33.925			-3.392
229704.000			33.923			-3.392
229804.000			33.924			-3.392
229905.000			33.924			-3.392
230004.000			33.923			-3.392
230103.000			33.923			-3.392
230205.000			33.922			-3.392
230304.000			33.922			-3.392
230404.000			33.922			-3.392
230505.000			33.922			-3.392
230604.000			33.922			-3.392
230704.000			33.921			-3.392
230804.000			33.920			-3.392
230904.000			33.921			-3.392
231004.000			33.920			-3.392
231104.000			33.919			-3.392
231204.000			33.919			-3.392
231305.000			33.919			-3.392
231404.000			33.919			-3.392
231504.000			33.917			-3.392
231605.000			33.915			-3.392
231704.000			33.916			-3.392
231804.000			33.916			-3.392
231904.000			33.916			-3.392
232004.000			33.915			-3.392
232104.000			33.915			-3.391
232205.000			33.915			-3.392
232304.000			33.914			-3.391
232404.000			33.914			-3.391
232505.000			33.913			-3.391
232604.000			33.912			-3.391
232704.000			33.911			-3.391
232804.000			33.911			-3.391
232904.000			33.912			-3.391
233004.000			33.911			-3.391
233105.000			33.911			-3.391
233204.000			33.911			-3.391
233304.000			33.910			-3.391
233405.000			33.908			-3.391
233503.000			33.909			-3.391
233604.000			33.909			-3.391
233704.000			33.909			-3.391
233804.000			33.907			-3.391
233904.000			33.907			-3.391
234004.000			33.907			-3.391
234104.000			33.906			-3.391
234205.000			33.906			-3.391
234304.000			33.906			-3.391
234403.000			33.905			-3.391
234505.000			33.904			-3.390
234604.000			33.903			-3.390
234704.000			33.903			-3.390
234805.000			33.904			-3.390
234904.000			33.903			-3.390
235004.000			33.902			-3.390
235105.000			33.901			-3.390
235204.000			33.901			-3.390
235303.000			33.902			-3.390
235405.000			33.901			-3.390
235504.000			33.900			-3.390
235604.000			33.900			-3.390
235705.000			33.899			-3.390
235804.000			33.899			-3.390
235904.000			33.899			-3.390
236005.000			33.898			-3.390
236104.000			33.897			-3.390
236203.000			33.896			-3.390
236305.000			33.897			-3.390
236404.000			33.898			-3.390
236504.000			33.897			-3.390
236605.000			33.896			-3.390
236704.000			33.895			-3.389
236804.000			33.894			-3.389
236905.000			33.894			-3.389
237004.000			33.894			-3.389
237104.000			33.894			-3.389
237205.000			33.894			-3.389
237303.000			33.894			-3.389
237405.000			33.893			-3.389
237504.000			33.892			-3.389
237604.000			33.891			-3.389
237705.000			33.891			-3.389
237804.000			33.892			-3.389
237904.000			33.891			-3.389
238005.000			33.890			-3.389
238104.000			33.889			-3.389
238203.000			33.889			-3.389
238305.000			33.888			-3.389
238404.000			33.887			-3.389
238504.000			33.887			-3.389
238605.000			33.887			-3.389
238704.000			33.887			-3.389
238804.000			33.887			-3.389
238905.000			33.886			-3.389
239004.000			33.886			-3.389
239104.000			33.886			-3.389
239205.000			33.885			-3.388
239303.000			33.883			-3.388
239404.000			33.884			-3.388
239505.000			33.884			-3.388
239604.000			33.883			-3.388
239704.000			33.882			-3.388
239805.000			33.883			-3.388
239904.000			33.883			-3.388
240004.000			33.882			-3.388
240105.000			33.881			-3.388
240203.000			33.880			-3.388
240304.000			33.880			-3.388
240403.000			33.880			-3.388
240504.000			33.880			-3.388
240605.000			33.879			-3.388
240704.000			33.879			-3.388
240804.000			33.878			-3.388
240905.000			33.877			-3.388
241004.000			33.878			-3.388
241104.000			33.877			-3.388
241205.000			33.876			-3.388
241303.000			33.876			-3.388
241404.000			33.876			-3.388
241505.000			33.875			-3.388
241604.000			33.875			-3.387
241704.000			33.874			-3.387
241805.000			33.874			-3.387
241904.000			33.874			-3.387
242004.000			33.874			-3.387
242105.000			33.873			-3.387
242203.000			33.873			-3.387
242304.000			33.873			-3.387
242405.000			33.872			-3.387
242504.000			33.873			-3.387
242604.000			33.871			-3.387
242705.000			33.871			-3.387
242804.000			33.870			-3.387
242904.000			33.870			-3.387
243005.000			33.869			-3.387
243103.000			33.868			-3.387
243204.000			33.868			-3.387
243305.000			33.868			-3.387
243404.000			33.868			-3.387
243504.000			33.868			-3.387
243604.000			33.867			-3.387
243704.000			33.867			-3.387
243805.000			33.865			-3.387
243904.000			33.865			-3.387
244003.000			33.865			-3.386
244105.000			33.864			-3.386
244204.000			33.864			-3.386
244304.000			33.863			-3.386
244405.000			33.863			-3.386
244504.000			33.863			-3.386
244604.000			33.863			-3.386
244705.000			33.862			-3.386
244804.000			33.862			-3.386
244903.000			33.861			-3.386
245005.000			33.861			-3.386
245104.000			33.860			-3.386
245204.000			33.859			-3.386
245305.000			33.860			-3.386
245404.000			33.860			-3.386
245504.000			33.859			-3.386
245605.000			33.859			-3.386
245704.000			33.859			-3.386
245803.000			33.860			-3.386
245905.000			33.857			-3.386
246004.000			33.858			-3.386
246104.000			33.858			-3.386
246205.000			33.858			-3.386
246304.000			33.856			-3.386
246404.000			33.855			-3.386
246505.000			33.855			-3.386
246604.000			33.855			-3.386
246703.000			33.854			-3.385
246805.000			33.853			-3.385
246903.000			33.853			-3.385
247005.000			33.853			-3.385
247104.000			33.852			-3.385
247204.000			33.853			-3.385
247305.000			33.852			-3.385
247404.000			33.850			-3.385
247504.000			33.850			-3.385
247604.000			33.851			-3.385
247704.000			33.850			-3.385
247803.000			33.850			-3.385
247905.000			33.850			-3.385
248004.000			33.849			-3.385
248104.000			33.850			-3.385
248205.000			33.849			-3.385
248304.000			33.848			-3.385
248404.000			33.847			-3.385
248504.000			33.848			-3.385
248604.000			33.848			-3.385
248703.000			33.847			-3.385
248805.000			33.847			-3.385
248904.000			33.846			-3.385
249004.000			33.846			-3.385
249105.000			33.845			-3.385
249204.000			33.845			-3.384
249304.000			33.844			-3.384
249405.000			33.844			-3.384
249504.000			33.844			-3.384
249603.000			33.843			-3.384
249705.000			33.842			-3.384
249804.000			33.842			-3.384
249904.000			33.842			-3.384
250005.000			33.841			-3.384
250104.000			33.841			-3.384
250205.000			33.841			-3.384
250304.000			33.841			-3.384
250404.000			33.840			-3.384
250504.000			33.839			-3.384
250604.000			33.839			-3.384
250704.000			33.838			-3.384
250805.000			33.839			-3.384
250904.000			33.838			-3.384
251004.000			33.838			-3.384
251105.000			33.837			-3.384
251204.000			33.837			-3.384
251304.000			33.835			-3.384
251404.000			33.836			-3.384
251504.000			33.835			-3.384
251604.000			33.836			-3.384
251705.000			33.836			-3.384
251804.000			33.834			-3.383
251904.000			33.833			-3.383
252005.000			33.834			-3.383
252104.000			33.833			-3.383
252204.000			33.832			-3.383
252304.000			33.833			-3.383
252404.000			33.833			-3.383
252503.000			33.833			-3.383
252605.000			33.833			-3.383
252704.000			33.831			-3.383
252804.000			33.830			-3.383
252905.000			33.829			-3.383
253004.000			33.830			-3.383
253104.000			33.829			-3.383
253203.000			33.829			-3.383
253304.000			33.828			-3.383
253404.000			33.828			-3.383
253504.000			33.827			-3.383
253604.000			33.827			-3.383
253705.000			33.827			-3.383
253804.000			33.826			-3.383
253904.000			33.825			-3.383
254005.000			33.825			-3.383
254103.000			33.826			-3.383
254204.000			33.825			-3.382
254304.000			33.825			-3.383
254404.000			33.824			-3.382
254504.000			33.824			-3.382
254605.000			33.824			-3.382
254704.000			33.824			-3.382
254804.000			33.823			-3.382
254905.000			33.823			-3.382
255003.000			33.822			-3.382
255104.000			33.821			-3.382
255204.000			33.822			-3.382
255304.000			33.822			-3.382
255404.000			33.822			-3.382
255505.000			33.821			-3.382
255604.000			33.820			-3.382
255704.000			33.819			-3.382
255805.000			33.818			-3.382
255903.000			33.819			-3.382
256004.000			33.819			-3.382
256104.000			33.818			-3.382
256204.000			33.818			-3.382
256304.000			33.817			-3.382
256404.000			33.816			-3.382
256504.000			33.816			-3.382
256605.000			33.816			-3.382
256704.000			33.815			-3.382
256803.000			33.815			-3.381
256905.000			33.815			-3.381
257003.000			33.815			-3.381
257104.000			33.813			-3.381
257205.000			33.813			-3.381
257304.000			33.813			-3.381
257404.000			33.812			-3.381
257505.000			33.812			-3.381
257604.000			33.813			-3.381
257703.000			33.811			-3.381
257805.000			33.811			-3.381
257903.000			33.811			-3.381
258004.000			33.811			-3.381
258105.000			33.811			-3.381
258204.000			33.810			-3.381
258304.000			33.810			-3.381
258405.000			33.809			-3.381
258504.000			33.809			-3.381
258603.000			33.809			-3.381
258705.000			33.809			-3.381
258803.000			33.807			-3.381
258904.000			33.806			-3.381
259005.000			33.806			-3.381
259104.000			33.807			-3.381
259204.000			33.806			-3.381
259305.000			33.805			-3.381
259404.000			33.804			-3.380
259503.000			33.803			-3.380
259605.000			33.804			-3.380
259703.000			33.804			-3.380
259805.000			33.804			-3.380
259904.000			33.804			-3.380
260004.000			33.801			-3.380
260105.000			33.802			-3.380
260204.000			33.803			-3.380
260304.000			33.802			-3.380
260404.000			33.801			-3.380
260504.000			33.801			-3.380
260603.000			33.801			-3.380
260705.000			33.800			-3.380
260804.000			33.800			-3.380
260904.000			33.799			-3.380
261005.000			33.798			-3.380
261104.000			33.798			-3.380
261204.000			33.798			-3.380
261304.000			33.797			-3.380
261404.000			33.798			-3.380
261503.000			33.797			-3.380
261605.000			33.797			-3.380
261704.000			33.798			-3.380
261804.000			33.796			-3.380
261905.000			33.795			-3.380
262004.000			33.795			-3.380
262104.000			33.794			-3.379
262204.000			33.795			-3.379
262304.000			33.794			-3.379
262403.000			33.794			-3.379
262505.000			33.795			-3.379
262604.000			33.793			-3.379
262704.000			33.793			-3.379
262805.000			33.793			-3.379
262904.000			33.792			-3.379
263005.000			33.791			-3.379
263104.000			33.791			-3.379
263204.000			33.791			-3.379
263304.000			33.791			-3.379
263404.000			33.790			-3.379
263504.000			33.791			-3.379
263605.000			33.789			-3.379
263704.000			33.789			-3.379
263804.000			33.789			-3.379
263905.000			33.790			-3.379
264004.000			33.789			-3.379
264104.000			33.788			-3.379
264204.000			33.788			-3.379
264304.000			33.787			-3.379
264404.000			33.787			-3.379
264505.000			33.786			-3.379
264604.000			33.785			-3.378
264704.000			33.784			-3.378
264805.000			33.785			-3.378
264904.000			33.785			-3.378
265004.000			33.783			-3.378
265104.000			33.783			-3.378
265204.000			33.783			-3.378
265303.000			33.782			-3.378
265405.000			33.782			-3.378
265504.000			33.783			-3.378
265604.000			33.782			-3.378
265705.000			33.781			-3.378
265804.000			33.781			-3.378
265904.000			33.781			-3.378
266003.000			33.780			-3.378
266104.000			33.780			-3.378
266204.000			33.780			-3.378
266304.000			33.780			-3.378
266404.000			33.779			-3.378
266505.000			33.779			-3.378
266604.000			33.778			-3.378
266704.000			33.778			-3.378
266805.000			33.778			-3.378
266904.000			33.778			-3.378
267004.000			33.778			-3.378
267104.000			33.778			-3.378
267204.000			33.776			-3.378
267304.000			33.775			-3.377
267405.000			33.775			-3.378
267504.000			33.775			-3.377
267604.000			33.774			-3.377
267705.000			33.774			-3.377
267804.000			33.773			-3.377
267904.000			33.774			-3.377
268004.000			33.774			-3.377
268104.000			33.773			-3.377
268203.000			33.771			-3.377
268305.000			33.771			-3.377
268404.000			33.771			-3.377
268504.000			33.770			-3.377
268605.000			33.771			-3.377
268704.000			33.770			-3.377
268804.000			33.770			-3.377
268904.000			33.770			-3.377
269004.000			33.769			-3.377
269103.000			33.768			-3.377
269205.000			33.769			-3.377
269304.000			33.769			-3.377
269405.000			33.768			-3.377
269504.000			33.768			-3.377
269604.000			33.767			-3.377
269705.000			33.767			-3.377
269804.000			33.767			-3.377
269904.000			33.767			-3.377
270004.000			33.765			-3.377
270104.000			33.765			-3.376
270203.000			33.764			-3.376
270305.000			33.765			-3.376
270404.000			33.764			-3.376
270504.000			33.764			-3.376
270605.000			33.764			-3.376
270704.000			33.763			-3.376
270804.000			33.763			-3.376
270904.000			33.763			-3.376
271004.000			33.762			-3.376
271104.000			33.762			-3.376
271205.000			33.761			-3.376
271304.000			33.761			-3.376
271404.000			33.761			-3.376
271505.000			33.760			-3.376
271604.000			33.759			-3.376
271704.000			33.758			-3.376
271804.000			33.759			-3.376
271904.000			33.761			-3.376
272003.000			33.760			-3.376
272105.000			33.759			-3.376
272204.000			33.757			-3.376
272304.000			33.757			-3.376
272405.000			33.757			-3.376
272504.000			33.756			-3.376
272605.000			33.756			-3.376
272703.000			33.757			-3.376
272804.000			33.756			-3.376
272904.000			33.756			-3.376
273004.000			33.755			-3.376
273104.000			33.755			-3.376
273205.000			33.754			-3.375
273304.000			33.754			-3.375
273404.000			33.754			-3.375
273505.000			33.753			-3.375
273603.000			33.753			-3.375
273704.000			33.752			-3.375
273804.000			33.753			-3.375
273904.000			33.752			-3.375
274004.000			33.752			-3.375
274105.000			33.751			-3.375
274204.000			33.750			-3.375
274304.000			33.750			-3.375
274405.000			33.749			-3.375
274503.000			33.749			-3.375
274604.000			33.748			-3.375
274704.000			33.748			-3.375
274804.000			33.748			-3.375
274904.000			33.747			-3.375
275005.000			33.747			-3.375
275104.000			33.747			-3.375
275204.000			33.746			-3.375
275305.000			33.747			-3.375
275404.000			33.746			-3.375
275504.000			33.746			-3.375
275603.000			33.746			-3.375
275704.000			33.746			-3.375
275805.000			33.746			-3.375
275904.000			33.745			-3.374
276004.000			33.743			-3.374
276105.000			33.743			-3.374
276204.000			33.743			-3.374
276304.000			33.744			-3.374
276405.000			33.742			-3.374
276503.000			33.742			-3.374
276604.000			33.742			-3.374
276705.000			33.741			-3.374
276804.000			33.741			-3.374
276904.000			33.741			-3.374
277005.000			33.740			-3.374
277104.000			33.739			-3.374
277204.000			33.740			-3.374
277305.000			33.740			-3.374
277403.000			33.740			-3.374
277504.000			33.739			-3.374
277605.000			33.739			-3.374
277704.000			33.738			-3.374
277804.000			33.738			-3.374
277905.000			33.738			-3.374
278004.000			33.738			-3.374
278104.000			33.737			-3.374
278205.000			33.736			-3.374
278303.000			33.735			-3.374
278404.000			33.736			-3.374
278505.000			33.736			-3.374
278604.000			33.735			-3.373
278704.000			33.734			-3.373
278804.000			33.735			-3.374
278904.000			33.735			-3.374
279005.000			33.735			-3.373
279104.000			33.734			-3.373
279203.000			33.733			-3.373
279305.000			33.733			-3.373
279403.000			33.733			-3.373
279504.000			33.732			-3.373
279605.000			33.732			-3.373
279704.000			33.731			-3.373
279804.000			33.731			-3.373
279905.000			33.730			-3.373
280004.000			33.729			-3.373
280104.000			33.730			-3.373
280205.000			33.728			-3.373
280303.000			33.728			-3.373
280404.000			33.728			-3.373
280505.000			33.728			-3.373
280604.000			33.728			-3.373
280704.000			33.728			-3.373
280805.000			33.728			-3.373
280904.000			33.728			-3.373
281004.000			33.727			-3.373
281105.000			33.726			-3.373
281203.000			33.726			-3.373
281304.000			33.726			-3.373
281405.000			33.726			-3.373
281504.000			33.726			-3.373
281604.000			33.725			-3.373
281705.000			33.724			-3.372
281804.000			33.724			-3.372
281904.000			33.724			-3.372
282005.000			33.723			-3.372
282103.000			33.723			-3.372
282205.000			33.722			-3.372
282304.000			33.721			-3.372
282404.000			33.721			-3.372
282505.000			33.721			-3.372
282604.000			33.721			-3.372
282704.000			33.720			-3.372
282804.000			33.720			-3.372
282904.000			33.720			-3.372
283003.000			33.720			-3.372
283105.000			33.719			-3.372
283204.000			33.719			-3.372
283304.000			33.719			-3.372
283405.000			33.718			-3.372
283504.000			33.717			-3.372
283604.000			33.716			-3.372
283704.000			33.717			-3.372
283804.000			33.718			-3.372
283903.000			33.717			-3.372
284005.000			33.717			-3.372
284104.000			33.717			-3.372
284204.000			33.716			-3.372
284305.000			33.715			-3.371
284404.000			33.715			-3.372
284504.000			33.716			-3.372
284604.000			33.715			-3.371
284704.000			33.713			-3.371
284803.000			33.713			-3.371
284905.000			33.714			-3.371
285004.000			33.713			-3.371
285104.000			33.712			-3.371
285205.000			33.712			-3.371
285304.000			33.711			-3.371
285405.000			33.711			-3.371
285503.000			33.711			-3.371
285604.000			33.710			-3.371
285705.000			33.710			-3.371
285804.000			33.709			-3.371
285904.000			33.709			-3.371
286005.000			33.710			-3.371
286104.000			33.709			-3.371
286204.000			33.709			-3.371
286305.000			33.709			-3.371
286403.000			33.708			-3.371
286504.000			33.708			-3.371
286604.000			33.708			-3.371
286704.000			33.707			-3.371
286804.000			33.707			-3.371
286905.000			33.707			-3.371
287004.000			33.706			-3.371
287104.000			33.704			-3.370
287205.000			33.705			-3.370
287304.000			33.705			-3.371
287404.000			33.705			-3.370
287504.000			33.704			-3.370
287604.000			33.704			-3.370
287704.000			33.704			-3.370
287805.000			33.704			-3.370
287904.000			33.704			-3.370
288004.000			33.702			-3.370
288105.000			33.702			-3.370
288204.000			33.702			-3.370
288304.000			33.702			-3.370
288403.000			33.701			-3.370
288504.000			33.700			-3.370
288605.000			33.700			-3.370
288704.000			33.700			-3.370
288804.000			33.699			-3.370
288905.000			33.698			-3.370
289004.000			33.698			-3.370
289104.000			33.699			-3.370
289205.000			33.699			-3.370
289303.000			33.698			-3.370
289404.000			33.698			-3.370
289504.000			33.697			-3.370
289604.000			33.697			-3.370
289704.000			33.696			-3.370
289805.000			33.696			-3.370
289904.000			33.696			-3.370
290004.000			33.695			-3.370
290105.000			33.695			-3.369
290204.000			33.695			-3.370
290304.000			33.695			-3.370
290404.000			33.692			-3.369
290504.000			33.692			-3.369
290604.000			33.692			-3.369
290705.000			33.693			-3.369
290804.000			33.694			-3.369
290904.000			33.693			-3.369
291005.000			33.693			-3.369
291104.000			33.692			-3.369
291204.000			33.692			-3.369
291304.000			33.691			-3.369
291404.000			33.691			-3.369
291504.000			33.690			-3.369
291604.000			33.690			-3.369
291704.000			33.689			-3.369
291805.000			33.689			-3.369
291904.000			33.689			-3.369
292004.000			33.688			-3.369
292105.000			33.688			-3.369
292203.000			33.688			-3.369
292304.000			33.688			-3.369
292404.000			33.688			-3.369
292504.000			33.687			-3.369
292604.000			33.686			-3.369
292705.000			33.684			-3.368
292804.000			33.684			-3.368
292904.000			33.684			-3.368
293005.000			33.685			-3.368
293103.000			33.684			-3.368
293204.000			33.685			-3.368
293304.000			33.684			-3.368
293404.000			33.684			-3.368
293504.000			33.684			-3.368
293605.000			33.684			-3.368
293704.000			33.683			-3.368
293804.000			33.683			-3.368
293905.000			33.683			-3.368
294004.000			33.681			-3.368
294104.000			33.681			-3.368
294204.000			33.681			-3.368
294304.000			33.680			-3.368
294404.000			33.680			-3.368
294505.000			33.680			-3.368
294604.000			33.680			-3.368
294704.000			33.680			-3.368
294805.000			33.679			-3.368
294904.000			33.679			-3.368
295005.000			33.679			-3.368
295103.000			33.679			-3.368
295204.000			33.678			-3.368
295305.000			33.678			-3.368
295404.000			33.676			-3.368
295504.000			33.677			-3.368
295605.000			33.677			-3.368
295704.000			33.676			-3.368
295804.000			33.676			-3.368
295905.000			33.676			-3.368
296003.000			33.676			-3.368
296104.000			33.676			-3.368
296204.000			33.674			-3.367
296304.000			33.673			-3.367
296404.000			33.673			-3.367
296505.000			33.674			-3.367
296604.000			33.674			-3.367
296704.000			33.673			-3.367
296805.000			33.672			-3.367
296904.000			33.672			-3.367
297004.000			33.671			-3.367
297104.000			33.671			-3.367
297204.000			33.670			-3.367
297304.000			33.671			-3.367
297405.000			33.671			-3.367
297504.000			33.672			-3.367
297604.000			33.670			-3.367
297705.000			33.670			-3.367
297804.000			33.670			-3.367
297904.000			33.669			-3.367
298003.000			33.669			-3.367
298104.000			33.668			-3.367
298204.000			33.668			-3.367
298304.000			33.666			-3.367
298404.000			33.666			-3.367
298505.000			33.666			-3.367
298604.000			33.665			-3.367
298704.000			33.665			-3.367
298805.000			33.666			-3.367
298904.000			33.666			-3.367
299004.000			33.666			-3.367
299104.000			33.665			-3.366
299204.000			33.664			-3.366
299304.000			33.664			-3.366
299405.000			33.664			-3.366
299504.000			33.663			-3.366
299604.000			33.664			-3.366
299705.000			33.664			-3.366
299804.000			33.661			-3.366
299904.000			33.662			-3.366
