# Acquired on 24/01/2024 12:23:56 
# SPIDER: Creep_-3mm_GRPCNT1454A-1
# CREEP MEASUREMENT

# time [ms]		force [N]		stiffness [N/mm]
0.000			7.227			-2.409
105.000			7.697			-2.566
204.000			7.784			-2.595
304.000			7.710			-2.570
405.000			7.642			-2.547
504.000			7.550			-2.517
604.000			7.514			-2.505
705.000			7.484			-2.495
804.000			7.457			-2.486
904.000			7.433			-2.478
1003.000			7.413			-2.471
1104.000			7.393			-2.464
1205.000			7.360			-2.453
1304.000			7.344			-2.448
1404.000			7.330			-2.443
1505.000			7.316			-2.439
1604.000			7.305			-2.435
1703.000			7.293			-2.431
1805.000			7.282			-2.427
1904.000			7.262			-2.421
2004.000			7.253			-2.418
2105.000			7.244			-2.415
2203.000			7.235			-2.412
2304.000			7.226			-2.409
2405.000			7.219			-2.406
2504.000			7.210			-2.403
2604.000			7.196			-2.399
2705.000			7.189			-2.396
2804.000			7.184			-2.395
2903.000			7.177			-2.392
3005.000			7.171			-2.390
3104.000			7.165			-2.388
3204.000			7.159			-2.386
3305.000			7.154			-2.385
3403.000			7.143			-2.381
3504.000			7.138			-2.379
3605.000			7.134			-2.378
3704.000			7.129			-2.376
3804.000			7.124			-2.375
3905.000			7.119			-2.373
4004.000			7.114			-2.371
4103.000			7.106			-2.369
4205.000			7.102			-2.367
4304.000			7.098			-2.366
4405.000			7.094			-2.365
4504.000			7.090			-2.363
4604.000			7.087			-2.362
4705.000			7.082			-2.361
4804.000			7.076			-2.359
4904.000			7.072			-2.357
5005.000			7.068			-2.356
5104.000			7.067			-2.356
5204.000			7.063			-2.354
5304.000			7.059			-2.353
5404.000			7.056			-2.352
5504.000			7.049			-2.350
5605.000			7.046			-2.349
5704.000			7.043			-2.348
5804.000			7.040			-2.347
5905.000			7.037			-2.346
6003.000			7.035			-2.345
6104.000			7.031			-2.344
6205.000			7.028			-2.343
6304.000			7.025			-2.342
6404.000			7.022			-2.341
6504.000			7.019			-2.340
6604.000			7.017			-2.339
6704.000			7.014			-2.338
6805.000			7.011			-2.337
6904.000			7.011			-2.337
7004.000			7.004			-2.335
7105.000			7.002			-2.334
7203.000			7.000			-2.333
7304.000			6.997			-2.332
7405.000			6.995			-2.332
7504.000			6.994			-2.331
7605.000			6.991			-2.330
7704.000			6.988			-2.329
7804.000			6.984			-2.328
7904.000			6.982			-2.327
8004.000			6.981			-2.327
8104.000			6.979			-2.326
8205.000			6.978			-2.326
8304.000			6.975			-2.325
8404.000			6.970			-2.323
8505.000			6.970			-2.323
8603.000			6.968			-2.323
8704.000			6.965			-2.322
8805.000			6.963			-2.321
8904.000			6.961			-2.320
9004.000			6.958			-2.319
9105.000			6.956			-2.319
9204.000			6.954			-2.318
9303.000			6.953			-2.318
9405.000			6.951			-2.317
9504.000			6.949			-2.316
9604.000			6.948			-2.316
9705.000			6.946			-2.315
9804.000			6.944			-2.315
9904.000			6.942			-2.314
10004.000			6.941			-2.314
10104.000			6.939			-2.313
10204.000			6.938			-2.313
10305.000			6.935			-2.312
10404.000			6.933			-2.311
10503.000			6.933			-2.311
10605.000			6.930			-2.310
10704.000			6.928			-2.309
10805.000			6.925			-2.308
10904.000			6.925			-2.308
11004.000			6.923			-2.308
11105.000			6.921			-2.307
11203.000			6.920			-2.307
11304.000			6.920			-2.307
11405.000			6.917			-2.306
11504.000			6.915			-2.305
11604.000			6.913			-2.304
11705.000			6.912			-2.304
11804.000			6.911			-2.304
11903.000			6.910			-2.303
12005.000			6.909			-2.303
12104.000			6.905			-2.302
12204.000			6.904			-2.301
12305.000			6.902			-2.301
12404.000			6.902			-2.301
12504.000			6.902			-2.301
12604.000			6.900			-2.300
12704.000			6.898			-2.299
12804.000			6.895			-2.298
12905.000			6.894			-2.298
13004.000			6.894			-2.298
13103.000			6.892			-2.297
13205.000			6.891			-2.297
13304.000			6.890			-2.297
13404.000			6.889			-2.296
13505.000			6.887			-2.296
13604.000			6.885			-2.295
13704.000			6.884			-2.295
13803.000			6.883			-2.294
13904.000			6.881			-2.294
14005.000			6.879			-2.293
14104.000			6.879			-2.293
14204.000			6.879			-2.293
14305.000			6.878			-2.293
14404.000			6.876			-2.292
14503.000			6.874			-2.291
14605.000			6.873			-2.291
14704.000			6.873			-2.291
14804.000			6.872			-2.291
14905.000			6.870			-2.290
15004.000			6.868			-2.289
15104.000			6.868			-2.289
15204.000			6.867			-2.289
15304.000			6.866			-2.289
15403.000			6.864			-2.288
15505.000			6.862			-2.287
15604.000			6.863			-2.288
15704.000			6.861			-2.287
15805.000			6.860			-2.287
15903.000			6.857			-2.286
16004.000			6.856			-2.285
16105.000			6.856			-2.285
16204.000			6.856			-2.285
16304.000			6.854			-2.285
16405.000			6.852			-2.284
16504.000			6.852			-2.284
16603.000			6.851			-2.284
16705.000			6.850			-2.283
16804.000			6.850			-2.283
16904.000			6.848			-2.283
17005.000			6.847			-2.282
17104.000			6.846			-2.282
17205.000			6.846			-2.282
17303.000			6.844			-2.281
17404.000			6.843			-2.281
17505.000			6.843			-2.281
17604.000			6.842			-2.281
17704.000			6.841			-2.280
17805.000			6.840			-2.280
17904.000			6.838			-2.279
18003.000			6.836			-2.279
18105.000			6.836			-2.279
18204.000			6.836			-2.279
18304.000			6.835			-2.278
18405.000			6.835			-2.278
18504.000			6.835			-2.278
18604.000			6.833			-2.278
18704.000			6.832			-2.277
18804.000			6.831			-2.277
18904.000			6.831			-2.277
19005.000			6.831			-2.277
19104.000			6.830			-2.277
19204.000			6.829			-2.276
19305.000			6.827			-2.276
19403.000			6.828			-2.276
19504.000			6.828			-2.276
19605.000			6.827			-2.276
19704.000			6.826			-2.275
19804.000			6.825			-2.275
19905.000			6.825			-2.275
20004.000			6.824			-2.275
20103.000			6.821			-2.274
20205.000			6.821			-2.274
20304.000			6.820			-2.273
20405.000			6.821			-2.274
20504.000			6.820			-2.273
20604.000			6.818			-2.273
20705.000			6.817			-2.272
20803.000			6.816			-2.272
20904.000			6.814			-2.271
21005.000			6.814			-2.271
21104.000			6.813			-2.271
21204.000			6.812			-2.271
21305.000			6.812			-2.271
21404.000			6.812			-2.271
21503.000			6.811			-2.270
21605.000			6.809			-2.270
21704.000			6.808			-2.269
21804.000			6.808			-2.269
21905.000			6.807			-2.269
22004.000			6.806			-2.269
22104.000			6.807			-2.269
22204.000			6.806			-2.269
22304.000			6.805			-2.268
22404.000			6.804			-2.268
22505.000			6.803			-2.268
22604.000			6.802			-2.267
22703.000			6.801			-2.267
22805.000			6.801			-2.267
22904.000			6.800			-2.267
23004.000			6.798			-2.266
23105.000			6.797			-2.266
23204.000			6.797			-2.266
23304.000			6.796			-2.265
23404.000			6.795			-2.265
23504.000			6.794			-2.265
23603.000			6.793			-2.264
23704.000			6.793			-2.264
23804.000			6.792			-2.264
23905.000			6.791			-2.264
24004.000			6.791			-2.264
24104.000			6.791			-2.264
24205.000			6.790			-2.263
24303.000			6.790			-2.263
24404.000			6.787			-2.262
24505.000			6.786			-2.262
24604.000			6.785			-2.262
24704.000			6.785			-2.262
24805.000			6.785			-2.262
24904.000			6.784			-2.261
25003.000			6.784			-2.261
25105.000			6.783			-2.261
25204.000			6.782			-2.261
25304.000			6.781			-2.260
25405.000			6.781			-2.260
25504.000			6.780			-2.260
25604.000			6.778			-2.259
25704.000			6.778			-2.259
25804.000			6.778			-2.259
25904.000			6.776			-2.259
26005.000			6.776			-2.259
26104.000			6.776			-2.259
26204.000			6.776			-2.259
26305.000			6.775			-2.258
26403.000			6.775			-2.258
26504.000			6.773			-2.258
26605.000			6.772			-2.257
26704.000			6.771			-2.257
26805.000			6.770			-2.257
26904.000			6.770			-2.257
27004.000			6.771			-2.257
27104.000			6.770			-2.257
27204.000			6.769			-2.256
27304.000			6.767			-2.256
27405.000			6.767			-2.256
27504.000			6.767			-2.256
27604.000			6.767			-2.256
27705.000			6.766			-2.255
27803.000			6.766			-2.255
27904.000			6.765			-2.255
28005.000			6.765			-2.255
28104.000			6.762			-2.254
28204.000			6.762			-2.254
28305.000			6.763			-2.254
28404.000			6.762			-2.254
28503.000			6.762			-2.254
28605.000			6.762			-2.254
28704.000			6.760			-2.253
28804.000			6.759			-2.253
28905.000			6.759			-2.253
29004.000			6.759			-2.253
29104.000			6.758			-2.253
29204.000			6.757			-2.252
29304.000			6.756			-2.252
29404.000			6.757			-2.252
29505.000			6.755			-2.252
29604.000			6.755			-2.252
29704.000			6.754			-2.251
29805.000			6.754			-2.251
29903.000			6.753			-2.251
30005.000			6.753			-2.251
30104.000			6.753			-2.251
30204.000			6.753			-2.251
30305.000			6.750			-2.250
30404.000			6.751			-2.250
30504.000			6.751			-2.250
30604.000			6.750			-2.250
30704.000			6.748			-2.249
30804.000			6.748			-2.249
30905.000			6.748			-2.249
31004.000			6.747			-2.249
31104.000			6.746			-2.249
31205.000			6.745			-2.248
31303.000			6.745			-2.248
31404.000			6.745			-2.248
31505.000			6.746			-2.249
31604.000			6.745			-2.248
31704.000			6.744			-2.248
31805.000			6.743			-2.248
31904.000			6.743			-2.248
32003.000			6.742			-2.247
32105.000			6.741			-2.247
32204.000			6.740			-2.247
32304.000			6.742			-2.247
32405.000			6.741			-2.247
32503.000			6.741			-2.247
32604.000			6.740			-2.247
32705.000			6.738			-2.246
32804.000			6.738			-2.246
32904.000			6.737			-2.246
33004.000			6.736			-2.245
33104.000			6.736			-2.245
33203.000			6.736			-2.245
33304.000			6.735			-2.245
33404.000			6.736			-2.245
33505.000			6.735			-2.245
33604.000			6.734			-2.245
33704.000			6.734			-2.245
33805.000			6.734			-2.245
33903.000			6.732			-2.244
34004.000			6.732			-2.244
34105.000			6.732			-2.244
34204.000			6.732			-2.244
34304.000			6.732			-2.244
34405.000			6.731			-2.244
34504.000			6.730			-2.243
34603.000			6.730			-2.243
34705.000			6.729			-2.243
34804.000			6.729			-2.243
34904.000			6.728			-2.243
35005.000			6.728			-2.243
35104.000			6.727			-2.242
35204.000			6.727			-2.242
35304.000			6.727			-2.242
35404.000			6.725			-2.242
35504.000			6.725			-2.242
35605.000			6.726			-2.242
35704.000			6.725			-2.242
35804.000			6.725			-2.242
35905.000			6.724			-2.241
36003.000			6.724			-2.241
36104.000			6.723			-2.241
36205.000			6.722			-2.241
36304.000			6.722			-2.241
36405.000			6.722			-2.241
36504.000			6.722			-2.241
36604.000			6.722			-2.241
36704.000			6.721			-2.240
36804.000			6.720			-2.240
36904.000			6.719			-2.240
37005.000			6.719			-2.240
37104.000			6.718			-2.239
37204.000			6.718			-2.239
37305.000			6.717			-2.239
37403.000			6.717			-2.239
37504.000			6.717			-2.239
37605.000			6.716			-2.239
37704.000			6.716			-2.239
37804.000			6.716			-2.239
37905.000			6.715			-2.238
38004.000			6.714			-2.238
38103.000			6.713			-2.238
38205.000			6.713			-2.238
38304.000			6.713			-2.238
38404.000			6.713			-2.238
38505.000			6.713			-2.238
38603.000			6.714			-2.238
38704.000			6.713			-2.238
38805.000			6.712			-2.237
38904.000			6.711			-2.237
39004.000			6.711			-2.237
39105.000			6.710			-2.237
39204.000			6.710			-2.237
39303.000			6.710			-2.237
39405.000			6.709			-2.236
39504.000			6.709			-2.236
39605.000			6.708			-2.236
39704.000			6.707			-2.236
39804.000			6.708			-2.236
39905.000			6.708			-2.236
40003.000			6.707			-2.236
40104.000			6.706			-2.235
40205.000			6.705			-2.235
40304.000			6.705			-2.235
40404.000			6.705			-2.235
40505.000			6.705			-2.235
40604.000			6.704			-2.235
40703.000			6.704			-2.235
40805.000			6.704			-2.235
40904.000			6.702			-2.234
41004.000			6.703			-2.234
41105.000			6.701			-2.234
41204.000			6.701			-2.234
41304.000			6.701			-2.234
41405.000			6.701			-2.234
41504.000			6.701			-2.234
41604.000			6.701			-2.234
41705.000			6.700			-2.233
41804.000			6.700			-2.233
41903.000			6.699			-2.233
42005.000			6.698			-2.233
42104.000			6.697			-2.232
42204.000			6.698			-2.233
42305.000			6.698			-2.233
42404.000			6.698			-2.233
42504.000			6.697			-2.232
42603.000			6.696			-2.232
42704.000			6.696			-2.232
42805.000			6.697			-2.232
42904.000			6.696			-2.232
43004.000			6.695			-2.232
43105.000			6.694			-2.231
43204.000			6.695			-2.232
43303.000			6.694			-2.231
43405.000			6.693			-2.231
43504.000			6.693			-2.231
43604.000			6.692			-2.231
43705.000			6.692			-2.231
43804.000			6.692			-2.231
43904.000			6.691			-2.230
44004.000			6.691			-2.230
44104.000			6.691			-2.230
44204.000			6.690			-2.230
44305.000			6.689			-2.230
44404.000			6.690			-2.230
44504.000			6.689			-2.230
44605.000			6.689			-2.230
44703.000			6.689			-2.230
44804.000			6.688			-2.229
44905.000			6.689			-2.230
45004.000			6.689			-2.230
45104.000			6.688			-2.229
45205.000			6.687			-2.229
45304.000			6.687			-2.229
45403.000			6.687			-2.229
45505.000			6.686			-2.229
45604.000			6.686			-2.229
45704.000			6.685			-2.228
45805.000			6.685			-2.228
45904.000			6.685			-2.228
46005.000			6.685			-2.228
46103.000			6.684			-2.228
46204.000			6.683			-2.228
46305.000			6.682			-2.227
46404.000			6.682			-2.227
46504.000			6.682			-2.227
46605.000			6.682			-2.227
46704.000			6.683			-2.228
46803.000			6.683			-2.228
46905.000			6.681			-2.227
47004.000			6.681			-2.227
47104.000			6.680			-2.227
47205.000			6.681			-2.227
47304.000			6.680			-2.227
47404.000			6.679			-2.226
47504.000			6.679			-2.226
47604.000			6.679			-2.226
47704.000			6.679			-2.226
47805.000			6.678			-2.226
47904.000			6.678			-2.226
48004.000			6.677			-2.226
48105.000			6.679			-2.226
48204.000			6.677			-2.226
48304.000			6.677			-2.226
48404.000			6.677			-2.226
48504.000			6.676			-2.225
48604.000			6.676			-2.225
48705.000			6.675			-2.225
48804.000			6.674			-2.225
48904.000			6.674			-2.225
49005.000			6.673			-2.224
49103.000			6.674			-2.225
49205.000			6.673			-2.224
49304.000			6.672			-2.224
49404.000			6.672			-2.224
49505.000			6.672			-2.224
49604.000			6.673			-2.224
49704.000			6.673			-2.224
49804.000			6.672			-2.224
49904.000			6.672			-2.224
50004.000			6.671			-2.224
50105.000			6.671			-2.224
50204.000			6.671			-2.224
50304.000			6.671			-2.224
50405.000			6.670			-2.223
50503.000			6.669			-2.223
50604.000			6.668			-2.223
50705.000			6.668			-2.223
50804.000			6.669			-2.223
50904.000			6.668			-2.223
51005.000			6.667			-2.222
51104.000			6.668			-2.223
51203.000			6.668			-2.223
51305.000			6.667			-2.222
51404.000			6.667			-2.222
51504.000			6.665			-2.222
51605.000			6.665			-2.222
51704.000			6.665			-2.222
51804.000			6.665			-2.222
51904.000			6.664			-2.221
52004.000			6.665			-2.222
52104.000			6.665			-2.222
52204.000			6.664			-2.221
52304.000			6.663			-2.221
52403.000			6.663			-2.221
52504.000			6.663			-2.221
52604.000			6.662			-2.221
52705.000			6.662			-2.221
52804.000			6.662			-2.221
52904.000			6.662			-2.221
53005.000			6.661			-2.220
53103.000			6.661			-2.220
53204.000			6.661			-2.220
53305.000			6.661			-2.220
53404.000			6.661			-2.220
53504.000			6.660			-2.220
53605.000			6.660			-2.220
53704.000			6.660			-2.220
53803.000			6.659			-2.220
53905.000			6.660			-2.220
54004.000			6.659			-2.220
54104.000			6.659			-2.220
54205.000			6.658			-2.219
54304.000			6.658			-2.219
54404.000			6.658			-2.219
54504.000			6.657			-2.219
54604.000			6.656			-2.219
54704.000			6.656			-2.219
54805.000			6.656			-2.219
54904.000			6.657			-2.219
55004.000			6.657			-2.219
55105.000			6.656			-2.219
55203.000			6.656			-2.219
55304.000			6.655			-2.218
55405.000			6.655			-2.218
55504.000			6.656			-2.219
55605.000			6.655			-2.218
55704.000			6.654			-2.218
55804.000			6.654			-2.218
55904.000			6.654			-2.218
56004.000			6.653			-2.218
56104.000			6.653			-2.218
56205.000			6.653			-2.218
56304.000			6.653			-2.218
56404.000			6.652			-2.217
56505.000			6.653			-2.218
56603.000			6.653			-2.218
56704.000			6.651			-2.217
56805.000			6.651			-2.217
56904.000			6.650			-2.217
57004.000			6.650			-2.217
57105.000			6.651			-2.217
57204.000			6.650			-2.217
57303.000			6.650			-2.217
57405.000			6.649			-2.216
57504.000			6.648			-2.216
57604.000			6.649			-2.216
57705.000			6.650			-2.217
57804.000			6.649			-2.216
57904.000			6.648			-2.216
58004.000			6.647			-2.216
58104.000			6.647			-2.216
58204.000			6.647			-2.216
58305.000			6.648			-2.216
58404.000			6.647			-2.216
58504.000			6.647			-2.216
58605.000			6.645			-2.215
58703.000			6.645			-2.215
58805.000			6.646			-2.215
58904.000			6.646			-2.215
59004.000			6.645			-2.215
59105.000			6.644			-2.215
59204.000			6.645			-2.215
59304.000			6.644			-2.215
59404.000			6.644			-2.215
59504.000			6.644			-2.215
59604.000			6.644			-2.215
59705.000			6.645			-2.215
59804.000			6.643			-2.214
59904.000			6.643			-2.214
60005.000			6.642			-2.214
60103.000			6.642			-2.214
60204.000			6.642			-2.214
60305.000			6.642			-2.214
60404.000			6.642			-2.214
60504.000			6.642			-2.214
60605.000			6.641			-2.214
60704.000			6.641			-2.214
60803.000			6.642			-2.214
60905.000			6.641			-2.214
61004.000			6.640			-2.213
61104.000			6.640			-2.213
61205.000			6.640			-2.213
61304.000			6.640			-2.213
61404.000			6.640			-2.213
61504.000			6.639			-2.213
61604.000			6.639			-2.213
61704.000			6.638			-2.213
61804.000			6.639			-2.213
61904.000			6.638			-2.213
62005.000			6.638			-2.213
62104.000			6.638			-2.213
62203.000			6.637			-2.212
62305.000			6.637			-2.212
62404.000			6.637			-2.212
62504.000			6.637			-2.212
62605.000			6.636			-2.212
62704.000			6.636			-2.212
62804.000			6.635			-2.212
62904.000			6.636			-2.212
63004.000			6.635			-2.212
63104.000			6.635			-2.212
63205.000			6.634			-2.211
63304.000			6.634			-2.211
63404.000			6.634			-2.211
63505.000			6.634			-2.211
63604.000			6.634			-2.211
63704.000			6.633			-2.211
63805.000			6.633			-2.211
63904.000			6.633			-2.211
64004.000			6.633			-2.211
64104.000			6.633			-2.211
64204.000			6.633			-2.211
64304.000			6.633			-2.211
64405.000			6.633			-2.211
64504.000			6.631			-2.210
64604.000			6.633			-2.211
64705.000			6.634			-2.211
64803.000			6.633			-2.211
64904.000			6.633			-2.211
65005.000			6.632			-2.211
65104.000			6.632			-2.211
65205.000			6.632			-2.211
65304.000			6.631			-2.210
65404.000			6.630			-2.210
65504.000			6.631			-2.210
65604.000			6.631			-2.210
65704.000			6.629			-2.210
65805.000			6.629			-2.210
65904.000			6.629			-2.210
66004.000			6.629			-2.210
66105.000			6.630			-2.210
66203.000			6.628			-2.209
66304.000			6.628			-2.209
66405.000			6.628			-2.209
66504.000			6.628			-2.209
66604.000			6.628			-2.209
66705.000			6.627			-2.209
66804.000			6.628			-2.209
66903.000			6.627			-2.209
67005.000			6.626			-2.209
67104.000			6.626			-2.209
67204.000			6.626			-2.209
67305.000			6.625			-2.208
67404.000			6.625			-2.208
67504.000			6.626			-2.209
67604.000			6.626			-2.209
67704.000			6.625			-2.208
67804.000			6.625			-2.208
67905.000			6.625			-2.208
68004.000			6.624			-2.208
68104.000			6.622			-2.207
68205.000			6.622			-2.207
68303.000			6.622			-2.207
68405.000			6.622			-2.207
68504.000			6.623			-2.208
68604.000			6.623			-2.208
68705.000			6.623			-2.208
68804.000			6.622			-2.207
68904.000			6.621			-2.207
69004.000			6.621			-2.207
69104.000			6.620			-2.207
69204.000			6.620			-2.207
69305.000			6.620			-2.207
69404.000			6.620			-2.207
69504.000			6.620			-2.207
69605.000			6.619			-2.206
69703.000			6.618			-2.206
69804.000			6.619			-2.206
69904.000			6.620			-2.207
70004.000			6.620			-2.207
70104.000			6.620			-2.207
70205.000			6.619			-2.206
70304.000			6.619			-2.206
70404.000			6.618			-2.206
70505.000			6.618			-2.206
70603.000			6.619			-2.206
70704.000			6.619			-2.206
70805.000			6.618			-2.206
70904.000			6.618			-2.206
71004.000			6.620			-2.207
71105.000			6.620			-2.207
71204.000			6.619			-2.206
71303.000			6.618			-2.206
71405.000			6.619			-2.206
71504.000			6.618			-2.206
71605.000			6.618			-2.206
71704.000			6.618			-2.206
71804.000			6.617			-2.206
71905.000			6.617			-2.206
72003.000			6.617			-2.206
72104.000			6.615			-2.205
72205.000			6.615			-2.205
72304.000			6.616			-2.205
72404.000			6.615			-2.205
72504.000			6.615			-2.205
72604.000			6.615			-2.205
72703.000			6.614			-2.205
72805.000			6.613			-2.204
72904.000			6.613			-2.204
73004.000			6.613			-2.204
73105.000			6.613			-2.204
73203.000			6.614			-2.205
73304.000			6.614			-2.205
73405.000			6.614			-2.205
73504.000			6.612			-2.204
73604.000			6.611			-2.204
73705.000			6.612			-2.204
73804.000			6.613			-2.204
73903.000			6.612			-2.204
74005.000			6.611			-2.204
74104.000			6.611			-2.204
74204.000			6.611			-2.204
74305.000			6.611			-2.204
74404.000			6.611			-2.204
74504.000			6.610			-2.203
74603.000			6.609			-2.203
74704.000			6.608			-2.203
74805.000			6.608			-2.203
74904.000			6.610			-2.203
75004.000			6.609			-2.203
75105.000			6.608			-2.203
75204.000			6.607			-2.202
75303.000			6.608			-2.203
75405.000			6.608			-2.203
75504.000			6.608			-2.203
75604.000			6.608			-2.203
75705.000			6.607			-2.202
75804.000			6.606			-2.202
75904.000			6.606			-2.202
76004.000			6.606			-2.202
76104.000			6.606			-2.202
76204.000			6.606			-2.202
76305.000			6.606			-2.202
76404.000			6.605			-2.202
76504.000			6.605			-2.202
76605.000			6.605			-2.202
76703.000			6.605			-2.202
76804.000			6.605			-2.202
76905.000			6.604			-2.201
77004.000			6.604			-2.201
77104.000			6.605			-2.202
77205.000			6.606			-2.202
77304.000			6.606			-2.202
77403.000			6.606			-2.202
77505.000			6.605			-2.202
77604.000			6.605			-2.202
77704.000			6.605			-2.202
77805.000			6.605			-2.202
77904.000			6.604			-2.201
78005.000			6.605			-2.202
78103.000			6.605			-2.202
78204.000			6.604			-2.201
78305.000			6.604			-2.201
78404.000			6.604			-2.201
78504.000			6.604			-2.201
78605.000			6.604			-2.201
78704.000			6.604			-2.201
78803.000			6.605			-2.202
78905.000			6.604			-2.201
79004.000			6.604			-2.201
79104.000			6.604			-2.201
79205.000			6.604			-2.201
79304.000			6.604			-2.201
79404.000			6.603			-2.201
79504.000			6.603			-2.201
79604.000			6.604			-2.201
79703.000			6.603			-2.201
79805.000			6.602			-2.201
79904.000			6.602			-2.201
80004.000			6.601			-2.200
80105.000			6.602			-2.201
80203.000			6.602			-2.201
80304.000			6.601			-2.200
80405.000			6.600			-2.200
80504.000			6.601			-2.200
80604.000			6.601			-2.200
80705.000			6.601			-2.200
80804.000			6.600			-2.200
80903.000			6.600			-2.200
81005.000			6.600			-2.200
81104.000			6.599			-2.200
81205.000			6.599			-2.200
81304.000			6.598			-2.199
81404.000			6.599			-2.200
81505.000			6.598			-2.199
81604.000			6.598			-2.199
81704.000			6.599			-2.200
81804.000			6.599			-2.200
81904.000			6.598			-2.199
82004.000			6.598			-2.199
82105.000			6.598			-2.199
82204.000			6.598			-2.199
82304.000			6.597			-2.199
82405.000			6.597			-2.199
82503.000			6.597			-2.199
82604.000			6.597			-2.199
82705.000			6.595			-2.198
82804.000			6.595			-2.198
82904.000			6.596			-2.199
83005.000			6.596			-2.199
83104.000			6.595			-2.198
83203.000			6.595			-2.198
83305.000			6.595			-2.198
83404.000			6.593			-2.198
83504.000			6.593			-2.198
83605.000			6.593			-2.198
83704.000			6.592			-2.197
83804.000			6.592			-2.197
83904.000			6.593			-2.198
84004.000			6.593			-2.198
84104.000			6.593			-2.198
84204.000			6.592			-2.197
84304.000			6.592			-2.197
84405.000			6.593			-2.198
84504.000			6.592			-2.197
84603.000			6.592			-2.197
84705.000			6.592			-2.197
84804.000			6.594			-2.198
84904.000			6.593			-2.198
85005.000			6.593			-2.198
85104.000			6.593			-2.198
85204.000			6.592			-2.197
85304.000			6.592			-2.197
85404.000			6.593			-2.198
85504.000			6.594			-2.198
85605.000			6.595			-2.198
85704.000			6.593			-2.198
85804.000			6.592			-2.197
85905.000			6.593			-2.198
86003.000			6.593			-2.198
86104.000			6.593			-2.198
86205.000			6.591			-2.197
86304.000			6.592			-2.197
86404.000			6.592			-2.197
86505.000			6.592			-2.197
86604.000			6.591			-2.197
86703.000			6.590			-2.197
86805.000			6.591			-2.197
86904.000			6.590			-2.197
87004.000			6.589			-2.196
87105.000			6.590			-2.197
87204.000			6.590			-2.197
87304.000			6.589			-2.196
87404.000			6.589			-2.196
87504.000			6.589			-2.196
87603.000			6.588			-2.196
87704.000			6.588			-2.196
87804.000			6.587			-2.196
87905.000			6.587			-2.196
88004.000			6.586			-2.195
88104.000			6.586			-2.195
88205.000			6.587			-2.196
88303.000			6.587			-2.196
88404.000			6.585			-2.195
88505.000			6.585			-2.195
88604.000			6.584			-2.195
88704.000			6.583			-2.194
88805.000			6.583			-2.194
88904.000			6.583			-2.194
89003.000			6.584			-2.195
89105.000			6.583			-2.194
89204.000			6.582			-2.194
89304.000			6.582			-2.194
89405.000			6.582			-2.194
89504.000			6.582			-2.194
89604.000			6.582			-2.194
89704.000			6.581			-2.194
89804.000			6.581			-2.194
89904.000			6.580			-2.193
90005.000			6.580			-2.193
90104.000			6.580			-2.193
90204.000			6.580			-2.193
90305.000			6.580			-2.193
90403.000			6.580			-2.193
90504.000			6.578			-2.193
90603.000			6.579			-2.193
90704.000			6.579			-2.193
90805.000			6.578			-2.193
90904.000			6.578			-2.193
91004.000			6.578			-2.193
91105.000			6.578			-2.193
91204.000			6.578			-2.193
91303.000			6.577			-2.192
91405.000			6.578			-2.193
91504.000			6.578			-2.193
91604.000			6.577			-2.192
91705.000			6.577			-2.192
91804.000			6.578			-2.193
91904.000			6.579			-2.193
92004.000			6.576			-2.192
92104.000			6.577			-2.192
92204.000			6.577			-2.192
92305.000			6.577			-2.192
92404.000			6.577			-2.192
92504.000			6.578			-2.193
92605.000			6.578			-2.193
92703.000			6.577			-2.192
92804.000			6.577			-2.192
92905.000			6.577			-2.192
93004.000			6.576			-2.192
93104.000			6.576			-2.192
93205.000			6.576			-2.192
93304.000			6.576			-2.192
93403.000			6.578			-2.193
93505.000			6.577			-2.192
93604.000			6.576			-2.192
93704.000			6.577			-2.192
93805.000			6.579			-2.193
93904.000			6.577			-2.192
94005.000			6.576			-2.192
94103.000			6.576			-2.192
94204.000			6.576			-2.192
94305.000			6.575			-2.192
94404.000			6.575			-2.192
94504.000			6.575			-2.192
94605.000			6.574			-2.191
94704.000			6.575			-2.192
94803.000			6.575			-2.192
94905.000			6.573			-2.191
95004.000			6.573			-2.191
95104.000			6.573			-2.191
95205.000			6.573			-2.191
95304.000			6.573			-2.191
95404.000			6.572			-2.191
95504.000			6.573			-2.191
95604.000			6.573			-2.191
95704.000			6.573			-2.191
95805.000			6.572			-2.191
95904.000			6.571			-2.190
96004.000			6.572			-2.191
96105.000			6.572			-2.191
96204.000			6.572			-2.191
96304.000			6.572			-2.191
96404.000			6.573			-2.191
96504.000			6.573			-2.191
96604.000			6.572			-2.191
96705.000			6.572			-2.191
96804.000			6.572			-2.191
96904.000			6.572			-2.191
97005.000			6.572			-2.191
97103.000			6.571			-2.190
97205.000			6.571			-2.190
97304.000			6.572			-2.191
97404.000			6.573			-2.191
97505.000			6.573			-2.191
97604.000			6.571			-2.190
97704.000			6.571			-2.190
97804.000			6.571			-2.190
97904.000			6.570			-2.190
98004.000			6.571			-2.190
98105.000			6.570			-2.190
98204.000			6.570			-2.190
98304.000			6.570			-2.190
98405.000			6.570			-2.190
98503.000			6.569			-2.190
98604.000			6.569			-2.190
98705.000			6.568			-2.189
98804.000			6.568			-2.189
98904.000			6.567			-2.189
99005.000			6.567			-2.189
99104.000			6.567			-2.189
99203.000			6.567			-2.189
99305.000			6.567			-2.189
99404.000			6.567			-2.189
99504.000			6.566			-2.189
99605.000			6.565			-2.188
99704.000			6.565			-2.188
99804.000			6.565			-2.188
99905.000			6.565			-2.188
100004.000			6.564			-2.188
100103.000			6.564			-2.188
100205.000			6.564			-2.188
100304.000			6.563			-2.188
100405.000			6.562			-2.187
100504.000			6.563			-2.188
100604.000			6.563			-2.188
100705.000			6.563			-2.188
100803.000			6.563			-2.188
100904.000			6.562			-2.187
101005.000			6.561			-2.187
101104.000			6.563			-2.188
101204.000			6.562			-2.187
101305.000			6.562			-2.187
101404.000			6.561			-2.187
101503.000			6.561			-2.187
101605.000			6.561			-2.187
101704.000			6.561			-2.187
101804.000			6.561			-2.187
101905.000			6.560			-2.187
102004.000			6.560			-2.187
102104.000			6.560			-2.187
102204.000			6.561			-2.187
102304.000			6.560			-2.187
102404.000			6.560			-2.187
102505.000			6.561			-2.187
102604.000			6.559			-2.186
102704.000			6.559			-2.186
102805.000			6.559			-2.186
102903.000			6.557			-2.186
103004.000			6.557			-2.186
103105.000			6.557			-2.186
103204.000			6.557			-2.186
103304.000			6.558			-2.186
103404.000			6.558			-2.186
103504.000			6.557			-2.186
103603.000			6.557			-2.186
103704.000			6.557			-2.186
103804.000			6.558			-2.186
103905.000			6.557			-2.186
104004.000			6.557			-2.186
104104.000			6.557			-2.186
104205.000			6.556			-2.185
104303.000			6.556			-2.185
104404.000			6.556			-2.185
104505.000			6.557			-2.186
104604.000			6.558			-2.186
104704.000			6.557			-2.186
104805.000			6.556			-2.185
104904.000			6.556			-2.185
105003.000			6.557			-2.186
105105.000			6.556			-2.185
105204.000			6.556			-2.185
105304.000			6.555			-2.185
105405.000			6.555			-2.185
105504.000			6.555			-2.185
105604.000			6.556			-2.185
105704.000			6.556			-2.185
105804.000			6.556			-2.185
105903.000			6.555			-2.185
106005.000			6.555			-2.185
106104.000			6.555			-2.185
106204.000			6.555			-2.185
106305.000			6.555			-2.185
106404.000			6.556			-2.185
106504.000			6.555			-2.185
106603.000			6.555			-2.185
106704.000			6.555			-2.185
106805.000			6.555			-2.185
106904.000			6.554			-2.185
107004.000			6.554			-2.185
107105.000			6.555			-2.185
107204.000			6.555			-2.185
107303.000			6.555			-2.185
107405.000			6.555			-2.185
107504.000			6.555			-2.185
107604.000			6.554			-2.185
107705.000			6.553			-2.184
107804.000			6.553			-2.184
107904.000			6.554			-2.185
108004.000			6.554			-2.185
108104.000			6.554			-2.185
108204.000			6.554			-2.185
108305.000			6.554			-2.185
108404.000			6.553			-2.184
108504.000			6.552			-2.184
108605.000			6.552			-2.184
108703.000			6.552			-2.184
108804.000			6.553			-2.184
108904.000			6.554			-2.185
109004.000			6.553			-2.184
109104.000			6.552			-2.184
109205.000			6.551			-2.184
109304.000			6.552			-2.184
109404.000			6.553			-2.184
109505.000			6.551			-2.184
109603.000			6.551			-2.184
109704.000			6.551			-2.184
109805.000			6.550			-2.183
109904.000			6.549			-2.183
110005.000			6.549			-2.183
110104.000			6.549			-2.183
110204.000			6.549			-2.183
110304.000			6.549			-2.183
110404.000			6.549			-2.183
110504.000			6.549			-2.183
110605.000			6.550			-2.183
110704.000			6.551			-2.184
110804.000			6.550			-2.183
110905.000			6.548			-2.183
111003.000			6.548			-2.183
111104.000			6.549			-2.183
111205.000			6.549			-2.183
111304.000			6.549			-2.183
111404.000			6.549			-2.183
111505.000			6.549			-2.183
111604.000			6.548			-2.183
111703.000			6.547			-2.182
111805.000			6.548			-2.183
111904.000			6.547			-2.182
112004.000			6.547			-2.182
112105.000			6.548			-2.183
112204.000			6.548			-2.183
112304.000			6.549			-2.183
112404.000			6.548			-2.183
112504.000			6.549			-2.183
112604.000			6.549			-2.183
112705.000			6.549			-2.183
112804.000			6.549			-2.183
112904.000			6.549			-2.183
113005.000			6.548			-2.183
113104.000			6.548			-2.183
113205.000			6.547			-2.182
113303.000			6.549			-2.183
113404.000			6.549			-2.183
113505.000			6.548			-2.183
113604.000			6.548			-2.183
113704.000			6.547			-2.182
113805.000			6.546			-2.182
113904.000			6.547			-2.182
114003.000			6.547			-2.182
114105.000			6.547			-2.182
114204.000			6.547			-2.182
114304.000			6.547			-2.182
114405.000			6.547			-2.182
114504.000			6.547			-2.182
114604.000			6.546			-2.182
114704.000			6.545			-2.182
114804.000			6.545			-2.182
114904.000			6.546			-2.182
115005.000			6.546			-2.182
115104.000			6.546			-2.182
115204.000			6.546			-2.182
115305.000			6.545			-2.182
115403.000			6.546			-2.182
115504.000			6.546			-2.182
115605.000			6.546			-2.182
115704.000			6.545			-2.182
115804.000			6.545			-2.182
115905.000			6.545			-2.182
116004.000			6.544			-2.181
116103.000			6.544			-2.181
116205.000			6.544			-2.181
116304.000			6.543			-2.181
116405.000			6.544			-2.181
116504.000			6.544			-2.181
116604.000			6.544			-2.181
116705.000			6.542			-2.181
116804.000			6.541			-2.180
116904.000			6.543			-2.181
117004.000			6.543			-2.181
117104.000			6.541			-2.180
117204.000			6.541			-2.180
117305.000			6.542			-2.181
117404.000			6.541			-2.180
117504.000			6.541			-2.180
117605.000			6.541			-2.180
117703.000			6.540			-2.180
117804.000			6.541			-2.180
117905.000			6.541			-2.180
118004.000			6.540			-2.180
118104.000			6.540			-2.180
118205.000			6.539			-2.180
118304.000			6.540			-2.180
118403.000			6.540			-2.180
118505.000			6.540			-2.180
118604.000			6.539			-2.180
118704.000			6.539			-2.180
118805.000			6.539			-2.180
118904.000			6.539			-2.180
119004.000			6.540			-2.180
119104.000			6.539			-2.180
119204.000			6.538			-2.179
119304.000			6.539			-2.180
119404.000			6.539			-2.180
119504.000			6.539			-2.180
119605.000			6.539			-2.180
119704.000			6.539			-2.180
119804.000			6.538			-2.179
119905.000			6.538			-2.179
120003.000			6.538			-2.179
120104.000			6.539			-2.180
120205.000			6.538			-2.179
120304.000			6.538			-2.179
120404.000			6.538			-2.179
120505.000			6.538			-2.179
120604.000			6.538			-2.179
120703.000			6.537			-2.179
120805.000			6.538			-2.179
120904.000			6.539			-2.180
121004.000			6.538			-2.179
121105.000			6.538			-2.179
121204.000			6.538			-2.179
121304.000			6.538			-2.179
121404.000			6.537			-2.179
121504.000			6.537			-2.179
121604.000			6.538			-2.179
121705.000			6.537			-2.179
121804.000			6.536			-2.179
121904.000			6.536			-2.179
122005.000			6.536			-2.179
122103.000			6.536			-2.179
122204.000			6.535			-2.178
122305.000			6.536			-2.179
122404.000			6.536			-2.179
122504.000			6.535			-2.178
122604.000			6.534			-2.178
122704.000			6.533			-2.178
122803.000			6.534			-2.178
122904.000			6.534			-2.178
123003.000			6.534			-2.178
123105.000			6.534			-2.178
123204.000			6.534			-2.178
123304.000			6.535			-2.178
123405.000			6.534			-2.178
123504.000			6.533			-2.178
123604.000			6.533			-2.178
123704.000			6.533			-2.178
123804.000			6.533			-2.178
123904.000			6.532			-2.177
124005.000			6.532			-2.177
124104.000			6.532			-2.177
124204.000			6.532			-2.177
124305.000			6.531			-2.177
124403.000			6.532			-2.177
124504.000			6.532			-2.177
124605.000			6.531			-2.177
124704.000			6.531			-2.177
124804.000			6.531			-2.177
124905.000			6.530			-2.177
125004.000			6.530			-2.177
125103.000			6.530			-2.177
125205.000			6.530			-2.177
125304.000			6.528			-2.176
125404.000			6.528			-2.176
125505.000			6.530			-2.177
125604.000			6.529			-2.176
125704.000			6.528			-2.176
125803.000			6.528			-2.176
125904.000			6.528			-2.176
126005.000			6.527			-2.176
126104.000			6.528			-2.176
126204.000			6.528			-2.176
126305.000			6.528			-2.176
126404.000			6.527			-2.176
126503.000			6.526			-2.175
126605.000			6.525			-2.175
126704.000			6.527			-2.176
126804.000			6.527			-2.176
126905.000			6.525			-2.175
127004.000			6.525			-2.175
127104.000			6.526			-2.175
127204.000			6.526			-2.175
127304.000			6.526			-2.175
127403.000			6.527			-2.176
127505.000			6.526			-2.175
127604.000			6.526			-2.175
127704.000			6.526			-2.175
127805.000			6.526			-2.175
127904.000			6.525			-2.175
128004.000			6.525			-2.175
128104.000			6.526			-2.175
128204.000			6.527			-2.176
128304.000			6.527			-2.176
128405.000			6.527			-2.176
128504.000			6.527			-2.176
128604.000			6.527			-2.176
128705.000			6.526			-2.175
128803.000			6.526			-2.175
128904.000			6.526			-2.175
129005.000			6.527			-2.176
129104.000			6.527			-2.176
129205.000			6.527			-2.176
129304.000			6.526			-2.175
129404.000			6.527			-2.176
129505.000			6.526			-2.175
129604.000			6.526			-2.175
129703.000			6.527			-2.176
129805.000			6.525			-2.175
129904.000			6.526			-2.175
130004.000			6.525			-2.175
130105.000			6.525			-2.175
130204.000			6.525			-2.175
130304.000			6.525			-2.175
130404.000			6.526			-2.175
130504.000			6.523			-2.174
130604.000			6.524			-2.175
130705.000			6.525			-2.175
130804.000			6.524			-2.175
130904.000			6.524			-2.175
131005.000			6.524			-2.175
131103.000			6.523			-2.174
131204.000			6.523			-2.174
131305.000			6.523			-2.174
131404.000			6.524			-2.175
131504.000			6.524			-2.175
131605.000			6.523			-2.174
131704.000			6.522			-2.174
131803.000			6.522			-2.174
131905.000			6.522			-2.174
132004.000			6.522			-2.174
132104.000			6.522			-2.174
132205.000			6.521			-2.174
132304.000			6.521			-2.174
132405.000			6.521			-2.174
132504.000			6.521			-2.174
132604.000			6.521			-2.174
132704.000			6.520			-2.173
132804.000			6.521			-2.174
132904.000			6.520			-2.173
133005.000			6.520			-2.173
133104.000			6.520			-2.173
133204.000			6.519			-2.173
133305.000			6.519			-2.173
133404.000			6.519			-2.173
133504.000			6.518			-2.173
133604.000			6.518			-2.173
133704.000			6.518			-2.173
133804.000			6.519			-2.173
133905.000			6.518			-2.173
134004.000			6.518			-2.173
134104.000			6.517			-2.172
134205.000			6.517			-2.172
134304.000			6.516			-2.172
134404.000			6.516			-2.172
134504.000			6.517			-2.172
134604.000			6.517			-2.172
134704.000			6.516			-2.172
134805.000			6.516			-2.172
134904.000			6.516			-2.172
135004.000			6.516			-2.172
135105.000			6.516			-2.172
135204.000			6.516			-2.172
135304.000			6.515			-2.172
135403.000			6.514			-2.171
135504.000			6.515			-2.172
135605.000			6.514			-2.171
135704.000			6.514			-2.171
135804.000			6.514			-2.171
135905.000			6.514			-2.171
136004.000			6.515			-2.172
136103.000			6.515			-2.172
136205.000			6.514			-2.171
136303.000			6.514			-2.171
136404.000			6.514			-2.171
136505.000			6.513			-2.171
136604.000			6.514			-2.171
136704.000			6.513			-2.171
136805.000			6.514			-2.171
136904.000			6.514			-2.171
137003.000			6.513			-2.171
137105.000			6.513			-2.171
137204.000			6.514			-2.171
137304.000			6.513			-2.171
137405.000			6.512			-2.171
137504.000			6.513			-2.171
137604.000			6.513			-2.171
137705.000			6.513			-2.171
137804.000			6.512			-2.171
137903.000			6.512			-2.171
138005.000			6.512			-2.171
138104.000			6.512			-2.171
138204.000			6.511			-2.170
138305.000			6.512			-2.171
138404.000			6.511			-2.170
138504.000			6.512			-2.171
138604.000			6.511			-2.170
138704.000			6.510			-2.170
138803.000			6.511			-2.170
138904.000			6.511			-2.170
139003.000			6.511			-2.170
139105.000			6.510			-2.170
139204.000			6.510			-2.170
139304.000			6.510			-2.170
139405.000			6.510			-2.170
139504.000			6.509			-2.170
139604.000			6.509			-2.170
139704.000			6.510			-2.170
139804.000			6.510			-2.170
139903.000			6.510			-2.170
140005.000			6.510			-2.170
140104.000			6.509			-2.170
140204.000			6.508			-2.169
140305.000			6.509			-2.170
140404.000			6.510			-2.170
140504.000			6.510			-2.170
140604.000			6.510			-2.170
140704.000			6.508			-2.169
140804.000			6.509			-2.170
140905.000			6.510			-2.170
141004.000			6.508			-2.169
141104.000			6.509			-2.170
141205.000			6.508			-2.169
141304.000			6.509			-2.170
141404.000			6.508			-2.169
141504.000			6.507			-2.169
141604.000			6.508			-2.169
141704.000			6.509			-2.170
141804.000			6.509			-2.170
141904.000			6.508			-2.169
142005.000			6.508			-2.169
142104.000			6.508			-2.169
142204.000			6.509			-2.170
142305.000			6.507			-2.169
142403.000			6.507			-2.169
142504.000			6.507			-2.169
142605.000			6.507			-2.169
142704.000			6.508			-2.169
142804.000			6.507			-2.169
142905.000			6.508			-2.169
143004.000			6.507			-2.169
143104.000			6.506			-2.169
143205.000			6.506			-2.169
143303.000			6.506			-2.169
143404.000			6.506			-2.169
143505.000			6.505			-2.168
143604.000			6.506			-2.169
143704.000			6.506			-2.169
143805.000			6.506			-2.169
143904.000			6.506			-2.169
144003.000			6.506			-2.169
144105.000			6.506			-2.169
144203.000			6.506			-2.169
144304.000			6.505			-2.168
144405.000			6.506			-2.169
144504.000			6.505			-2.168
144604.000			6.504			-2.168
144705.000			6.504			-2.168
144804.000			6.504			-2.168
144903.000			6.504			-2.168
145005.000			6.505			-2.168
145103.000			6.504			-2.168
145205.000			6.504			-2.168
145304.000			6.504			-2.168
145404.000			6.504			-2.168
145505.000			6.504			-2.168
145604.000			6.503			-2.168
145704.000			6.503			-2.168
145804.000			6.502			-2.167
145904.000			6.503			-2.168
146003.000			6.503			-2.168
146105.000			6.503			-2.168
146204.000			6.503			-2.168
146304.000			6.504			-2.168
146405.000			6.503			-2.168
146504.000			6.503			-2.168
146604.000			6.502			-2.167
146704.000			6.502			-2.167
146804.000			6.504			-2.168
146903.000			6.502			-2.167
147005.000			6.502			-2.167
147104.000			6.503			-2.168
147204.000			6.503			-2.168
147305.000			6.502			-2.167
147404.000			6.502			-2.167
147504.000			6.503			-2.168
147604.000			6.502			-2.167
147704.000			6.502			-2.167
147804.000			6.502			-2.167
147905.000			6.501			-2.167
148004.000			6.502			-2.167
148104.000			6.501			-2.167
148205.000			6.501			-2.167
148304.000			6.501			-2.167
148405.000			6.501			-2.167
148503.000			6.500			-2.167
148604.000			6.500			-2.167
148705.000			6.500			-2.167
148804.000			6.500			-2.167
148904.000			6.500			-2.167
149005.000			6.500			-2.167
149104.000			6.500			-2.167
149204.000			6.500			-2.167
149305.000			6.499			-2.166
149403.000			6.498			-2.166
149504.000			6.499			-2.166
149604.000			6.499			-2.166
149704.000			6.498			-2.166
149804.000			6.500			-2.167
149905.000			6.500			-2.167
150004.000			6.499			-2.166
150104.000			6.498			-2.166
150205.000			6.499			-2.166
150304.000			6.499			-2.166
150404.000			6.498			-2.166
150504.000			6.498			-2.166
150604.000			6.498			-2.166
150704.000			6.499			-2.166
150805.000			6.498			-2.166
150904.000			6.498			-2.166
151004.000			6.497			-2.166
151105.000			6.497			-2.166
151204.000			6.499			-2.166
151304.000			6.499			-2.166
151403.000			6.497			-2.166
151504.000			6.496			-2.165
151603.000			6.498			-2.166
151704.000			6.498			-2.166
151804.000			6.497			-2.166
151905.000			6.497			-2.166
152004.000			6.497			-2.166
152104.000			6.497			-2.166
152205.000			6.497			-2.166
152304.000			6.497			-2.166
152404.000			6.497			-2.166
152504.000			6.496			-2.165
152604.000			6.496			-2.165
152704.000			6.496			-2.165
152805.000			6.496			-2.165
152904.000			6.497			-2.166
153004.000			6.496			-2.165
153105.000			6.496			-2.165
153204.000			6.496			-2.165
153304.000			6.495			-2.165
153404.000			6.495			-2.165
153504.000			6.496			-2.165
153604.000			6.495			-2.165
153705.000			6.495			-2.165
153804.000			6.494			-2.165
153904.000			6.496			-2.165
154005.000			6.496			-2.165
154104.000			6.494			-2.165
154204.000			6.495			-2.165
154304.000			6.495			-2.165
154404.000			6.495			-2.165
154504.000			6.495			-2.165
154604.000			6.496			-2.165
154704.000			6.495			-2.165
154805.000			6.494			-2.165
154904.000			6.494			-2.165
155004.000			6.494			-2.165
155105.000			6.495			-2.165
155203.000			6.495			-2.165
155304.000			6.494			-2.165
155404.000			6.493			-2.164
155504.000			6.493			-2.164
155604.000			6.495			-2.165
155705.000			6.494			-2.165
155804.000			6.494			-2.165
155904.000			6.493			-2.164
156005.000			6.494			-2.165
156104.000			6.494			-2.165
156204.000			6.493			-2.164
156304.000			6.492			-2.164
156404.000			6.492			-2.164
156504.000			6.493			-2.164
156605.000			6.492			-2.164
156704.000			6.493			-2.164
156804.000			6.493			-2.164
156905.000			6.492			-2.164
157004.000			6.492			-2.164
157104.000			6.492			-2.164
157204.000			6.492			-2.164
157304.000			6.491			-2.164
157404.000			6.492			-2.164
157505.000			6.492			-2.164
157604.000			6.492			-2.164
157704.000			6.493			-2.164
157805.000			6.492			-2.164
157904.000			6.491			-2.164
158005.000			6.491			-2.164
158103.000			6.491			-2.164
158204.000			6.492			-2.164
158304.000			6.491			-2.164
158404.000			6.490			-2.163
158504.000			6.491			-2.164
158605.000			6.491			-2.164
158704.000			6.490			-2.163
158804.000			6.490			-2.163
158905.000			6.491			-2.164
159004.000			6.490			-2.163
159104.000			6.490			-2.163
159204.000			6.490			-2.163
159304.000			6.491			-2.164
159404.000			6.490			-2.163
159505.000			6.491			-2.164
159604.000			6.490			-2.163
159704.000			6.489			-2.163
159805.000			6.490			-2.163
159904.000			6.489			-2.163
160004.000			6.488			-2.163
160104.000			6.488			-2.163
160204.000			6.488			-2.163
160303.000			6.489			-2.163
160405.000			6.489			-2.163
160504.000			6.489			-2.163
160604.000			6.489			-2.163
160705.000			6.489			-2.163
160804.000			6.488			-2.163
160904.000			6.488			-2.163
161003.000			6.489			-2.163
161104.000			6.488			-2.163
161203.000			6.487			-2.162
161304.000			6.489			-2.163
161404.000			6.488			-2.163
161505.000			6.487			-2.162
161604.000			6.488			-2.163
161704.000			6.488			-2.163
161805.000			6.488			-2.163
161904.000			6.488			-2.163
162004.000			6.487			-2.162
162104.000			6.487			-2.162
162204.000			6.487			-2.162
162304.000			6.487			-2.162
162405.000			6.487			-2.162
162504.000			6.487			-2.162
162604.000			6.487			-2.162
162705.000			6.487			-2.162
162804.000			6.486			-2.162
162904.000			6.486			-2.162
163004.000			6.486			-2.162
163104.000			6.485			-2.162
163204.000			6.486			-2.162
163305.000			6.486			-2.162
163404.000			6.486			-2.162
163504.000			6.485			-2.162
163605.000			6.484			-2.161
163704.000			6.485			-2.162
163804.000			6.487			-2.162
163904.000			6.486			-2.162
164004.000			6.486			-2.162
164103.000			6.486			-2.162
164205.000			6.485			-2.162
164304.000			6.484			-2.161
164405.000			6.485			-2.162
164504.000			6.486			-2.162
164604.000			6.484			-2.161
164705.000			6.484			-2.161
164804.000			6.484			-2.161
164904.000			6.484			-2.161
165004.000			6.484			-2.161
165104.000			6.484			-2.161
165204.000			6.483			-2.161
165305.000			6.483			-2.161
165404.000			6.484			-2.161
165504.000			6.484			-2.161
165605.000			6.484			-2.161
165704.000			6.483			-2.161
165804.000			6.483			-2.161
165904.000			6.482			-2.161
166004.000			6.483			-2.161
166103.000			6.483			-2.161
166205.000			6.483			-2.161
166304.000			6.482			-2.161
166404.000			6.483			-2.161
166505.000			6.483			-2.161
166604.000			6.484			-2.161
166704.000			6.483			-2.161
166804.000			6.482			-2.161
166904.000			6.482			-2.161
167003.000			6.482			-2.161
167105.000			6.482			-2.161
167204.000			6.482			-2.161
167304.000			6.482			-2.161
167405.000			6.483			-2.161
167504.000			6.482			-2.161
167605.000			6.481			-2.160
167704.000			6.481			-2.160
167804.000			6.481			-2.160
167904.000			6.482			-2.161
168004.000			6.482			-2.161
168104.000			6.481			-2.160
168205.000			6.481			-2.160
168304.000			6.482			-2.161
168404.000			6.480			-2.160
168505.000			6.481			-2.160
168604.000			6.481			-2.160
168704.000			6.480			-2.160
168804.000			6.480			-2.160
168904.000			6.481			-2.160
169004.000			6.481			-2.160
169105.000			6.480			-2.160
169204.000			6.481			-2.160
169304.000			6.481			-2.160
169405.000			6.481			-2.160
169504.000			6.481			-2.160
169604.000			6.480			-2.160
169704.000			6.479			-2.160
169804.000			6.480			-2.160
169904.000			6.479			-2.160
170005.000			6.479			-2.160
170104.000			6.480			-2.160
170204.000			6.481			-2.160
170305.000			6.481			-2.160
170404.000			6.479			-2.160
170504.000			6.479			-2.160
170603.000			6.479			-2.160
170704.000			6.479			-2.160
170803.000			6.478			-2.159
170904.000			6.478			-2.159
171004.000			6.478			-2.159
171105.000			6.479			-2.160
171204.000			6.478			-2.159
171304.000			6.479			-2.160
171405.000			6.478			-2.159
171504.000			6.478			-2.159
171604.000			6.478			-2.159
171704.000			6.479			-2.160
171804.000			6.478			-2.159
171904.000			6.478			-2.159
172005.000			6.478			-2.159
172104.000			6.478			-2.159
172204.000			6.477			-2.159
172305.000			6.477			-2.159
172404.000			6.476			-2.159
172504.000			6.477			-2.159
172604.000			6.478			-2.159
172704.000			6.476			-2.159
172804.000			6.475			-2.158
172905.000			6.475			-2.158
173004.000			6.475			-2.158
173104.000			6.476			-2.159
173205.000			6.476			-2.159
173304.000			6.476			-2.159
173404.000			6.477			-2.159
173504.000			6.476			-2.159
173604.000			6.476			-2.159
173703.000			6.476			-2.159
173805.000			6.477			-2.159
173904.000			6.477			-2.159
174005.000			6.476			-2.159
174104.000			6.475			-2.158
174204.000			6.475			-2.158
174305.000			6.476			-2.159
174403.000			6.477			-2.159
174504.000			6.477			-2.159
174604.000			6.476			-2.159
174704.000			6.476			-2.159
174804.000			6.476			-2.159
174905.000			6.475			-2.158
175004.000			6.475			-2.158
175104.000			6.475			-2.158
175205.000			6.474			-2.158
175304.000			6.474			-2.158
175404.000			6.475			-2.158
175504.000			6.474			-2.158
175604.000			6.474			-2.158
175704.000			6.473			-2.158
175805.000			6.474			-2.158
175904.000			6.476			-2.159
176004.000			6.474			-2.158
176105.000			6.474			-2.158
176204.000			6.474			-2.158
176304.000			6.474			-2.158
176404.000			6.473			-2.158
176504.000			6.473			-2.158
176604.000			6.473			-2.158
176705.000			6.473			-2.158
176804.000			6.473			-2.158
176904.000			6.473			-2.158
177005.000			6.473			-2.158
177104.000			6.472			-2.157
177205.000			6.473			-2.158
177303.000			6.473			-2.158
177404.000			6.472			-2.157
177504.000			6.472			-2.157
177604.000			6.473			-2.158
177704.000			6.472			-2.157
177805.000			6.472			-2.157
177904.000			6.472			-2.157
178004.000			6.472			-2.157
178105.000			6.473			-2.158
178204.000			6.472			-2.157
178304.000			6.472			-2.157
178404.000			6.472			-2.157
178504.000			6.471			-2.157
178604.000			6.471			-2.157
178705.000			6.471			-2.157
178804.000			6.471			-2.157
178904.000			6.470			-2.157
179005.000			6.470			-2.157
179104.000			6.472			-2.157
179204.000			6.472			-2.157
179304.000			6.471			-2.157
179404.000			6.471			-2.157
179504.000			6.471			-2.157
179605.000			6.470			-2.157
179704.000			6.470			-2.157
179804.000			6.470			-2.157
179905.000			6.469			-2.156
180004.000			6.470			-2.157
180104.000			6.471			-2.157
180203.000			6.471			-2.157
180304.000			6.470			-2.157
180403.000			6.470			-2.157
180504.000			6.470			-2.157
180604.000			6.471			-2.157
180705.000			6.469			-2.156
180804.000			6.469			-2.156
180904.000			6.470			-2.157
181005.000			6.470			-2.157
181104.000			6.470			-2.157
181204.000			6.470			-2.157
181304.000			6.470			-2.157
181404.000			6.469			-2.156
181504.000			6.469			-2.156
181605.000			6.469			-2.156
181704.000			6.469			-2.156
181804.000			6.468			-2.156
181905.000			6.468			-2.156
182004.000			6.469			-2.156
182104.000			6.468			-2.156
182204.000			6.469			-2.156
182304.000			6.468			-2.156
182404.000			6.468			-2.156
182505.000			6.468			-2.156
182604.000			6.468			-2.156
182704.000			6.469			-2.156
182805.000			6.468			-2.156
182904.000			6.468			-2.156
183004.000			6.468			-2.156
183104.000			6.468			-2.156
183204.000			6.467			-2.156
183303.000			6.467			-2.156
183405.000			6.467			-2.156
183504.000			6.468			-2.156
183605.000			6.467			-2.156
183704.000			6.467			-2.156
183804.000			6.467			-2.156
183905.000			6.468			-2.156
184004.000			6.468			-2.156
184104.000			6.468			-2.156
184204.000			6.466			-2.155
184304.000			6.466			-2.155
184404.000			6.466			-2.155
184505.000			6.465			-2.155
184604.000			6.466			-2.155
184704.000			6.467			-2.156
184805.000			6.465			-2.155
184904.000			6.465			-2.155
185004.000			6.467			-2.156
185104.000			6.467			-2.156
185204.000			6.467			-2.156
185303.000			6.467			-2.156
185405.000			6.467			-2.156
185504.000			6.466			-2.155
185604.000			6.466			-2.155
185705.000			6.465			-2.155
185804.000			6.466			-2.155
185904.000			6.465			-2.155
186004.000			6.465			-2.155
186104.000			6.465			-2.155
186203.000			6.466			-2.155
186305.000			6.465			-2.155
186404.000			6.466			-2.155
186504.000			6.466			-2.155
186605.000			6.465			-2.155
186704.000			6.464			-2.155
186805.000			6.465			-2.155
186904.000			6.465			-2.155
187004.000			6.465			-2.155
187104.000			6.464			-2.155
187204.000			6.464			-2.155
187304.000			6.464			-2.155
187405.000			6.464			-2.155
187504.000			6.464			-2.155
187604.000			6.465			-2.155
187705.000			6.465			-2.155
187804.000			6.464			-2.155
187904.000			6.464			-2.155
188004.000			6.464			-2.155
188104.000			6.466			-2.155
188203.000			6.465			-2.155
188305.000			6.465			-2.155
188404.000			6.463			-2.154
188504.000			6.465			-2.155
188605.000			6.464			-2.155
188704.000			6.464			-2.155
188804.000			6.464			-2.155
188905.000			6.464			-2.155
189004.000			6.464			-2.155
189103.000			6.465			-2.155
189205.000			6.465			-2.155
189304.000			6.465			-2.155
189404.000			6.465			-2.155
189505.000			6.465			-2.155
189604.000			6.464			-2.155
189704.000			6.464			-2.155
189804.000			6.464			-2.155
189904.000			6.464			-2.155
190003.000			6.465			-2.155
190104.000			6.463			-2.154
190203.000			6.464			-2.155
190305.000			6.464			-2.155
190404.000			6.465			-2.155
190504.000			6.465			-2.155
190605.000			6.464			-2.155
190704.000			6.465			-2.155
190804.000			6.464			-2.155
190904.000			6.464			-2.155
191004.000			6.464			-2.155
191103.000			6.463			-2.154
191205.000			6.463			-2.154
191304.000			6.464			-2.155
191404.000			6.464			-2.155
191505.000			6.463			-2.154
191604.000			6.462			-2.154
191704.000			6.463			-2.154
191804.000			6.464			-2.155
191904.000			6.463			-2.154
192003.000			6.463			-2.154
192105.000			6.462			-2.154
192204.000			6.463			-2.154
192304.000			6.462			-2.154
192405.000			6.462			-2.154
192504.000			6.462			-2.154
192604.000			6.461			-2.154
192704.000			6.462			-2.154
192804.000			6.462			-2.154
192903.000			6.462			-2.154
193005.000			6.460			-2.153
193104.000			6.460			-2.153
193205.000			6.461			-2.154
193304.000			6.461			-2.154
193404.000			6.461			-2.154
193505.000			6.462			-2.154
193604.000			6.462			-2.154
193704.000			6.461			-2.154
193804.000			6.461			-2.154
193904.000			6.461			-2.154
194004.000			6.461			-2.154
194105.000			6.460			-2.153
194204.000			6.460			-2.153
194304.000			6.460			-2.153
194405.000			6.460			-2.153
194504.000			6.461			-2.154
194604.000			6.461			-2.154
194704.000			6.460			-2.153
194804.000			6.461			-2.154
194904.000			6.461			-2.154
195005.000			6.460			-2.153
195104.000			6.458			-2.153
195204.000			6.460			-2.153
195305.000			6.461			-2.154
195404.000			6.460			-2.153
195504.000			6.459			-2.153
195604.000			6.459			-2.153
195704.000			6.459			-2.153
195803.000			6.460			-2.153
195905.000			6.458			-2.153
196004.000			6.459			-2.153
196104.000			6.457			-2.152
196205.000			6.458			-2.153
196304.000			6.459			-2.153
196405.000			6.459			-2.153
196504.000			6.457			-2.152
196604.000			6.457			-2.152
196704.000			6.457			-2.152
196804.000			6.458			-2.153
196904.000			6.456			-2.152
197005.000			6.456			-2.152
197104.000			6.457			-2.152
197204.000			6.456			-2.152
197305.000			6.456			-2.152
197404.000			6.456			-2.152
197504.000			6.457			-2.152
197604.000			6.457			-2.152
197704.000			6.457			-2.152
197803.000			6.457			-2.152
197905.000			6.456			-2.152
198004.000			6.456			-2.152
198104.000			6.457			-2.152
198205.000			6.457			-2.152
198304.000			6.456			-2.152
198404.000			6.456			-2.152
198505.000			6.455			-2.152
198604.000			6.455			-2.152
198703.000			6.455			-2.152
198805.000			6.456			-2.152
198904.000			6.455			-2.152
199004.000			6.456			-2.152
199105.000			6.456			-2.152
199204.000			6.456			-2.152
199304.000			6.456			-2.152
199404.000			6.455			-2.152
199504.000			6.455			-2.152
199603.000			6.456			-2.152
199704.000			6.457			-2.152
199803.000			6.456			-2.152
199905.000			6.455			-2.152
200004.000			6.456			-2.152
200104.000			6.456			-2.152
200205.000			6.456			-2.152
200304.000			6.456			-2.152
200404.000			6.456			-2.152
200505.000			6.456			-2.152
200604.000			6.456			-2.152
200703.000			6.456			-2.152
200805.000			6.456			-2.152
200904.000			6.457			-2.152
201004.000			6.456			-2.152
201105.000			6.456			-2.152
201204.000			6.455			-2.152
201304.000			6.455			-2.152
201404.000			6.456			-2.152
201504.000			6.456			-2.152
201603.000			6.456			-2.152
201705.000			6.456			-2.152
201804.000			6.455			-2.152
201904.000			6.455			-2.152
202005.000			6.456			-2.152
202104.000			6.455			-2.152
202204.000			6.454			-2.151
202304.000			6.454			-2.151
202404.000			6.455			-2.152
202503.000			6.455			-2.152
202605.000			6.455			-2.152
202704.000			6.455			-2.152
202805.000			6.454			-2.151
202904.000			6.455			-2.152
203004.000			6.454			-2.151
203105.000			6.453			-2.151
203203.000			6.453			-2.151
203304.000			6.455			-2.152
203405.000			6.454			-2.151
203504.000			6.454			-2.151
203604.000			6.454			-2.151
203705.000			6.454			-2.151
203804.000			6.454			-2.151
203904.000			6.453			-2.151
204005.000			6.452			-2.151
204103.000			6.452			-2.151
204204.000			6.453			-2.151
204305.000			6.453			-2.151
204404.000			6.452			-2.151
204504.000			6.452			-2.151
204605.000			6.452			-2.151
204704.000			6.450			-2.150
204804.000			6.450			-2.150
204905.000			6.451			-2.150
205003.000			6.451			-2.150
205104.000			6.451			-2.150
205205.000			6.452			-2.151
205304.000			6.451			-2.150
205404.000			6.451			-2.150
205505.000			6.451			-2.150
205604.000			6.451			-2.150
205703.000			6.451			-2.150
205805.000			6.451			-2.150
205904.000			6.451			-2.150
206005.000			6.450			-2.150
206104.000			6.450			-2.150
206204.000			6.450			-2.150
206305.000			6.450			-2.150
206404.000			6.450			-2.150
206504.000			6.450			-2.150
206604.000			6.449			-2.150
206704.000			6.449			-2.150
206803.000			6.448			-2.149
206905.000			6.449			-2.150
207004.000			6.449			-2.150
207104.000			6.448			-2.149
207205.000			6.449			-2.150
207304.000			6.448			-2.149
207404.000			6.448			-2.149
207504.000			6.448			-2.149
207604.000			6.449			-2.150
207703.000			6.448			-2.149
207805.000			6.447			-2.149
207904.000			6.447			-2.149
208004.000			6.448			-2.149
208105.000			6.448			-2.149
208204.000			6.447			-2.149
208304.000			6.447			-2.149
208404.000			6.447			-2.149
208504.000			6.447			-2.149
208603.000			6.447			-2.149
208705.000			6.448			-2.149
208804.000			6.447			-2.149
208904.000			6.446			-2.149
209005.000			6.447			-2.149
209104.000			6.446			-2.149
209205.000			6.446			-2.149
209303.000			6.447			-2.149
209404.000			6.447			-2.149
209504.000			6.447			-2.149
209604.000			6.447			-2.149
209704.000			6.447			-2.149
209805.000			6.447			-2.149
209904.000			6.447			-2.149
210004.000			6.445			-2.148
210105.000			6.446			-2.149
210204.000			6.447			-2.149
210304.000			6.446			-2.149
210404.000			6.446			-2.149
210504.000			6.445			-2.148
210604.000			6.445			-2.148
210705.000			6.445			-2.148
210804.000			6.445			-2.148
210904.000			6.445			-2.148
211005.000			6.443			-2.148
211103.000			6.445			-2.148
211204.000			6.445			-2.148
211305.000			6.444			-2.148
211404.000			6.444			-2.148
211504.000			6.445			-2.148
211605.000			6.445			-2.148
211704.000			6.445			-2.148
211804.000			6.445			-2.148
211905.000			6.444			-2.148
212003.000			6.445			-2.148
212104.000			6.445			-2.148
212205.000			6.443			-2.148
212304.000			6.443			-2.148
212405.000			6.445			-2.148
212504.000			6.444			-2.148
212604.000			6.445			-2.148
212704.000			6.444			-2.148
212804.000			6.443			-2.148
212903.000			6.444			-2.148
213005.000			6.445			-2.148
213104.000			6.444			-2.148
213204.000			6.444			-2.148
213305.000			6.444			-2.148
213404.000			6.443			-2.148
213504.000			6.442			-2.147
213604.000			6.442			-2.147
213704.000			6.442			-2.147
213804.000			6.443			-2.148
213905.000			6.443			-2.148
214004.000			6.443			-2.148
214104.000			6.443			-2.148
214205.000			6.443			-2.148
214304.000			6.443			-2.148
214404.000			6.443			-2.148
214504.000			6.443			-2.148
214604.000			6.443			-2.148
214704.000			6.442			-2.147
214805.000			6.443			-2.148
214904.000			6.444			-2.148
215004.000			6.442			-2.147
215105.000			6.442			-2.147
215204.000			6.441			-2.147
215304.000			6.441			-2.147
215403.000			6.441			-2.147
215504.000			6.442			-2.147
215605.000			6.442			-2.147
215704.000			6.442			-2.147
215804.000			6.441			-2.147
215905.000			6.442			-2.147
216004.000			6.442			-2.147
216104.000			6.441			-2.147
216205.000			6.441			-2.147
216303.000			6.441			-2.147
216404.000			6.441			-2.147
216505.000			6.440			-2.147
216604.000			6.441			-2.147
216704.000			6.441			-2.147
216805.000			6.440			-2.147
216904.000			6.440			-2.147
217004.000			6.441			-2.147
217105.000			6.441			-2.147
217203.000			6.440			-2.147
217304.000			6.440			-2.147
217405.000			6.440			-2.147
217504.000			6.440			-2.147
217604.000			6.441			-2.147
217705.000			6.440			-2.147
217804.000			6.440			-2.147
217904.000			6.440			-2.147
218005.000			6.439			-2.146
218103.000			6.440			-2.147
218204.000			6.440			-2.147
218305.000			6.439			-2.146
218404.000			6.439			-2.146
218504.000			6.439			-2.146
218604.000			6.439			-2.146
218704.000			6.440			-2.147
218803.000			6.439			-2.146
218904.000			6.438			-2.146
219003.000			6.438			-2.146
219105.000			6.438			-2.146
219204.000			6.438			-2.146
219304.000			6.439			-2.146
219405.000			6.439			-2.146
219504.000			6.438			-2.146
219604.000			6.439			-2.146
219704.000			6.439			-2.146
219804.000			6.438			-2.146
219903.000			6.439			-2.146
220005.000			6.438			-2.146
220104.000			6.438			-2.146
220204.000			6.438			-2.146
220305.000			6.438			-2.146
220404.000			6.438			-2.146
220504.000			6.438			-2.146
220604.000			6.438			-2.146
220704.000			6.438			-2.146
220803.000			6.438			-2.146
220905.000			6.438			-2.146
221004.000			6.439			-2.146
221104.000			6.437			-2.146
221205.000			6.436			-2.145
221304.000			6.438			-2.146
221404.000			6.437			-2.146
221504.000			6.437			-2.146
221604.000			6.437			-2.146
221703.000			6.438			-2.146
221805.000			6.437			-2.146
221904.000			6.437			-2.146
222005.000			6.437			-2.146
222104.000			6.437			-2.146
222204.000			6.438			-2.146
222305.000			6.437			-2.146
222403.000			6.437			-2.146
222504.000			6.437			-2.146
222604.000			6.437			-2.146
222704.000			6.437			-2.146
222804.000			6.437			-2.146
222905.000			6.438			-2.146
223004.000			6.438			-2.146
223104.000			6.437			-2.146
223205.000			6.438			-2.146
223303.000			6.438			-2.146
223404.000			6.438			-2.146
223505.000			6.438			-2.146
223604.000			6.438			-2.146
223704.000			6.438			-2.146
223805.000			6.437			-2.146
223904.000			6.438			-2.146
224004.000			6.438			-2.146
224105.000			6.437			-2.146
224203.000			6.437			-2.146
224304.000			6.437			-2.146
224405.000			6.437			-2.146
224504.000			6.437			-2.146
224604.000			6.437			-2.146
224705.000			6.437			-2.146
224804.000			6.436			-2.145
224904.000			6.437			-2.146
225005.000			6.436			-2.145
225103.000			6.436			-2.145
225205.000			6.436			-2.145
225304.000			6.436			-2.145
225404.000			6.436			-2.145
225505.000			6.436			-2.145
225604.000			6.436			-2.145
225704.000			6.436			-2.145
225805.000			6.435			-2.145
225904.000			6.435			-2.145
226003.000			6.435			-2.145
226105.000			6.436			-2.145
226204.000			6.435			-2.145
226304.000			6.435			-2.145
226405.000			6.435			-2.145
226504.000			6.436			-2.145
226604.000			6.436			-2.145
226705.000			6.435			-2.145
226804.000			6.435			-2.145
226903.000			6.434			-2.145
227005.000			6.434			-2.145
227104.000			6.434			-2.145
227204.000			6.434			-2.145
227305.000			6.434			-2.145
227404.000			6.434			-2.145
227504.000			6.435			-2.145
227605.000			6.434			-2.145
227704.000			6.434			-2.145
227803.000			6.434			-2.145
227905.000			6.434			-2.145
228004.000			6.432			-2.144
228104.000			6.433			-2.144
228205.000			6.432			-2.144
228304.000			6.432			-2.144
228405.000			6.433			-2.144
228504.000			6.433			-2.144
228604.000			6.432			-2.144
228704.000			6.432			-2.144
228804.000			6.432			-2.144
228904.000			6.432			-2.144
229005.000			6.432			-2.144
229104.000			6.432			-2.144
229204.000			6.431			-2.144
229305.000			6.432			-2.144
229404.000			6.431			-2.144
229504.000			6.431			-2.144
229604.000			6.431			-2.144
229704.000			6.432			-2.144
229804.000			6.432			-2.144
229905.000			6.432			-2.144
230004.000			6.431			-2.144
230104.000			6.431			-2.144
230205.000			6.431			-2.144
230304.000			6.430			-2.143
230404.000			6.430			-2.143
230504.000			6.430			-2.143
230604.000			6.431			-2.144
230704.000			6.430			-2.143
230805.000			6.432			-2.144
230904.000			6.431			-2.144
231004.000			6.430			-2.143
231105.000			6.430			-2.143
231203.000			6.431			-2.144
231304.000			6.431			-2.144
231403.000			6.431			-2.144
231504.000			6.430			-2.143
231605.000			6.430			-2.143
231704.000			6.430			-2.143
231804.000			6.430			-2.143
231905.000			6.429			-2.143
232004.000			6.430			-2.143
232103.000			6.429			-2.143
232205.000			6.429			-2.143
232304.000			6.429			-2.143
232404.000			6.430			-2.143
232505.000			6.429			-2.143
232604.000			6.429			-2.143
232704.000			6.430			-2.143
232805.000			6.430			-2.143
232904.000			6.430			-2.143
233003.000			6.429			-2.143
233105.000			6.429			-2.143
233204.000			6.428			-2.143
233304.000			6.428			-2.143
233405.000			6.429			-2.143
233504.000			6.428			-2.143
233604.000			6.428			-2.143
233705.000			6.429			-2.143
233804.000			6.428			-2.143
233903.000			6.428			-2.143
234005.000			6.429			-2.143
234104.000			6.429			-2.143
234204.000			6.428			-2.143
234305.000			6.429			-2.143
234404.000			6.428			-2.143
234504.000			6.429			-2.143
234604.000			6.428			-2.143
234704.000			6.427			-2.142
234803.000			6.428			-2.143
234904.000			6.428			-2.143
235003.000			6.429			-2.143
235105.000			6.428			-2.143
235204.000			6.428			-2.143
235304.000			6.428			-2.143
235405.000			6.428			-2.143
235504.000			6.427			-2.142
235604.000			6.426			-2.142
235704.000			6.427			-2.142
235804.000			6.427			-2.142
235903.000			6.426			-2.142
236005.000			6.426			-2.142
236104.000			6.428			-2.143
236204.000			6.427			-2.142
236305.000			6.426			-2.142
236404.000			6.426			-2.142
236504.000			6.426			-2.142
236604.000			6.426			-2.142
236704.000			6.426			-2.142
236803.000			6.426			-2.142
236905.000			6.425			-2.142
237004.000			6.426			-2.142
237104.000			6.426			-2.142
237205.000			6.425			-2.142
237304.000			6.427			-2.142
237404.000			6.426			-2.142
237504.000			6.425			-2.142
237604.000			6.425			-2.142
237703.000			6.425			-2.142
237805.000			6.426			-2.142
237904.000			6.426			-2.142
238005.000			6.426			-2.142
238104.000			6.426			-2.142
238204.000			6.425			-2.142
238305.000			6.425			-2.142
238403.000			6.424			-2.141
238504.000			6.425			-2.142
238604.000			6.425			-2.142
238704.000			6.424			-2.141
238804.000			6.426			-2.142
238905.000			6.425			-2.142
239004.000			6.425			-2.142
239104.000			6.425			-2.142
239205.000			6.425			-2.142
239303.000			6.425			-2.142
239404.000			6.425			-2.142
239504.000			6.426			-2.142
239604.000			6.426			-2.142
239704.000			6.425			-2.142
239805.000			6.425			-2.142
239904.000			6.425			-2.142
240004.000			6.425			-2.142
240105.000			6.425			-2.142
240203.000			6.425			-2.142
240304.000			6.425			-2.142
240404.000			6.424			-2.141
240504.000			6.423			-2.141
240604.000			6.424			-2.141
240705.000			6.425			-2.142
240804.000			6.424			-2.141
240904.000			6.425			-2.142
241005.000			6.424			-2.141
241103.000			6.423			-2.141
241205.000			6.424			-2.141
241304.000			6.423			-2.141
241404.000			6.424			-2.141
241505.000			6.423			-2.141
241604.000			6.422			-2.141
241704.000			6.423			-2.141
241805.000			6.423			-2.141
241904.000			6.422			-2.141
242003.000			6.422			-2.141
242105.000			6.422			-2.141
242204.000			6.422			-2.141
242304.000			6.422			-2.141
242405.000			6.422			-2.141
242504.000			6.422			-2.141
242604.000			6.422			-2.141
242705.000			6.422			-2.141
242804.000			6.422			-2.141
242903.000			6.422			-2.141
243005.000			6.423			-2.141
243104.000			6.422			-2.141
243204.000			6.421			-2.140
243305.000			6.421			-2.140
243404.000			6.421			-2.140
243504.000			6.421			-2.140
243604.000			6.421			-2.140
243704.000			6.421			-2.140
243803.000			6.421			-2.140
243905.000			6.421			-2.140
244004.000			6.421			-2.140
244104.000			6.421			-2.140
244205.000			6.422			-2.141
244304.000			6.422			-2.141
244405.000			6.422			-2.141
244503.000			6.421			-2.140
244604.000			6.421			-2.140
244705.000			6.421			-2.140
244804.000			6.421			-2.140
244904.000			6.421			-2.140
245005.000			6.421			-2.140
245104.000			6.420			-2.140
245204.000			6.421			-2.140
245305.000			6.420			-2.140
245403.000			6.421			-2.140
245504.000			6.421			-2.140
245605.000			6.421			-2.140
245704.000			6.421			-2.140
245804.000			6.421			-2.140
245905.000			6.420			-2.140
246004.000			6.420			-2.140
246104.000			6.421			-2.140
246205.000			6.421			-2.140
246303.000			6.420			-2.140
246404.000			6.419			-2.140
246505.000			6.420			-2.140
246604.000			6.420			-2.140
246704.000			6.421			-2.140
246805.000			6.419			-2.140
246904.000			6.420			-2.140
247004.000			6.420			-2.140
247105.000			6.419			-2.140
247203.000			6.418			-2.139
247304.000			6.419			-2.140
247405.000			6.419			-2.140
247504.000			6.419			-2.140
247605.000			6.418			-2.139
247704.000			6.419			-2.140
247804.000			6.419			-2.140
247905.000			6.420			-2.140
248004.000			6.421			-2.140
248103.000			6.418			-2.139
248205.000			6.419			-2.140
248304.000			6.419			-2.140
248404.000			6.418			-2.139
248505.000			6.419			-2.140
248604.000			6.419			-2.140
248704.000			6.419			-2.140
248805.000			6.418			-2.139
248904.000			6.419			-2.140
249003.000			6.418			-2.139
249105.000			6.418			-2.139
249204.000			6.419			-2.140
249304.000			6.419			-2.140
249405.000			6.418			-2.139
249504.000			6.418			-2.139
249604.000			6.419			-2.140
249705.000			6.419			-2.140
249804.000			6.418			-2.139
249903.000			6.418			-2.139
250005.000			6.418			-2.139
250103.000			6.418			-2.139
250204.000			6.417			-2.139
250305.000			6.417			-2.139
250404.000			6.418			-2.139
250504.000			6.417			-2.139
250604.000			6.417			-2.139
250704.000			6.417			-2.139
250803.000			6.417			-2.139
250904.000			6.417			-2.139
251003.000			6.417			-2.139
251105.000			6.417			-2.139
251204.000			6.417			-2.139
251304.000			6.416			-2.139
251405.000			6.416			-2.139
251504.000			6.416			-2.139
251604.000			6.417			-2.139
251704.000			6.417			-2.139
251804.000			6.417			-2.139
251903.000			6.416			-2.139
252005.000			6.415			-2.138
252104.000			6.416			-2.139
252204.000			6.416			-2.139
252305.000			6.416			-2.139
252404.000			6.415			-2.138
252504.000			6.416			-2.139
252604.000			6.416			-2.139
252704.000			6.415			-2.138
252803.000			6.416			-2.139
252905.000			6.417			-2.139
253004.000			6.417			-2.139
253104.000			6.416			-2.139
253205.000			6.416			-2.139
253304.000			6.416			-2.139
253404.000			6.416			-2.139
253504.000			6.416			-2.139
253604.000			6.416			-2.139
253703.000			6.415			-2.138
253805.000			6.416			-2.139
253904.000			6.415			-2.138
254005.000			6.415			-2.138
254104.000			6.415			-2.138
254204.000			6.415			-2.138
254305.000			6.415			-2.138
254403.000			6.415			-2.138
254504.000			6.415			-2.138
254605.000			6.415			-2.138
254704.000			6.415			-2.138
254804.000			6.415			-2.138
254905.000			6.415			-2.138
255004.000			6.414			-2.138
255104.000			6.415			-2.138
255205.000			6.415			-2.138
255303.000			6.415			-2.138
255404.000			6.415			-2.138
255505.000			6.414			-2.138
255604.000			6.413			-2.138
255704.000			6.414			-2.138
255805.000			6.414			-2.138
255904.000			6.414			-2.138
256004.000			6.414			-2.138
256105.000			6.414			-2.138
256203.000			6.413			-2.138
256304.000			6.414			-2.138
256405.000			6.413			-2.138
256504.000			6.413			-2.138
256604.000			6.414			-2.138
256705.000			6.414			-2.138
256804.000			6.414			-2.138
256904.000			6.412			-2.137
257005.000			6.412			-2.137
257103.000			6.413			-2.138
257205.000			6.413			-2.138
257304.000			6.413			-2.138
257404.000			6.413			-2.138
257505.000			6.413			-2.138
257604.000			6.413			-2.138
257704.000			6.413			-2.138
257805.000			6.413			-2.138
257904.000			6.413			-2.138
258003.000			6.413			-2.138
258105.000			6.413			-2.138
258204.000			6.413			-2.138
258304.000			6.413			-2.138
258405.000			6.413			-2.138
258504.000			6.412			-2.137
258604.000			6.412			-2.137
258705.000			6.412			-2.137
258804.000			6.412			-2.137
258903.000			6.412			-2.137
259005.000			6.412			-2.137
259104.000			6.411			-2.137
259204.000			6.412			-2.137
259305.000			6.411			-2.137
259404.000			6.410			-2.137
259504.000			6.412			-2.137
259605.000			6.412			-2.137
259704.000			6.412			-2.137
259803.000			6.411			-2.137
259905.000			6.411			-2.137
260004.000			6.411			-2.137
260104.000			6.410			-2.137
260205.000			6.412			-2.137
260304.000			6.412			-2.137
260405.000			6.411			-2.137
260504.000			6.411			-2.137
260604.000			6.411			-2.137
260704.000			6.411			-2.137
260804.000			6.410			-2.137
260904.000			6.411			-2.137
261005.000			6.409			-2.136
261104.000			6.410			-2.137
261204.000			6.411			-2.137
261305.000			6.411			-2.137
261403.000			6.411			-2.137
261504.000			6.411			-2.137
261605.000			6.410			-2.137
261704.000			6.410			-2.137
261804.000			6.410			-2.137
261905.000			6.409			-2.136
262004.000			6.410			-2.137
262104.000			6.410			-2.137
262205.000			6.410			-2.137
262303.000			6.410			-2.137
262404.000			6.409			-2.136
262505.000			6.410			-2.137
262604.000			6.411			-2.137
262704.000			6.412			-2.137
262805.000			6.409			-2.136
262904.000			6.408			-2.136
263004.000			6.409			-2.136
263105.000			6.409			-2.136
263203.000			6.410			-2.137
263304.000			6.409			-2.136
263405.000			6.410			-2.137
263504.000			6.410			-2.137
263605.000			6.410			-2.137
263704.000			6.410			-2.137
263804.000			6.410			-2.137
263905.000			6.409			-2.136
264004.000			6.409			-2.136
264103.000			6.408			-2.136
264205.000			6.409			-2.136
264303.000			6.409			-2.136
264404.000			6.409			-2.136
264505.000			6.408			-2.136
264604.000			6.407			-2.136
264704.000			6.407			-2.136
264805.000			6.409			-2.136
264904.000			6.408			-2.136
265003.000			6.409			-2.136
265105.000			6.408			-2.136
265203.000			6.409			-2.136
265304.000			6.409			-2.136
265405.000			6.409			-2.136
265504.000			6.409			-2.136
265604.000			6.408			-2.136
265705.000			6.408			-2.136
265804.000			6.409			-2.136
265904.000			6.409			-2.136
266005.000			6.408			-2.136
266103.000			6.408			-2.136
266204.000			6.409			-2.136
266305.000			6.407			-2.136
266404.000			6.410			-2.137
266504.000			6.409			-2.136
266604.000			6.408			-2.136
266704.000			6.408			-2.136
266805.000			6.409			-2.136
266904.000			6.409			-2.136
267003.000			6.410			-2.137
267105.000			6.409			-2.136
267204.000			6.408			-2.136
267304.000			6.408			-2.136
267405.000			6.408			-2.136
267504.000			6.407			-2.136
267604.000			6.408			-2.136
267705.000			6.408			-2.136
267804.000			6.407			-2.136
267903.000			6.407			-2.136
268005.000			6.407			-2.136
268104.000			6.406			-2.135
268204.000			6.407			-2.136
268305.000			6.407			-2.136
268404.000			6.408			-2.136
268504.000			6.407			-2.136
268605.000			6.406			-2.135
268704.000			6.407			-2.136
268803.000			6.407			-2.136
268905.000			6.407			-2.136
269003.000			6.407			-2.136
269104.000			6.407			-2.136
269205.000			6.407			-2.136
269304.000			6.405			-2.135
269404.000			6.405			-2.135
269505.000			6.405			-2.135
269604.000			6.406			-2.135
269703.000			6.406			-2.135
269805.000			6.405			-2.135
269903.000			6.406			-2.135
270005.000			6.405			-2.135
270104.000			6.405			-2.135
270204.000			6.405			-2.135
270305.000			6.404			-2.135
270404.000			6.405			-2.135
270504.000			6.405			-2.135
270604.000			6.405			-2.135
270704.000			6.405			-2.135
270804.000			6.405			-2.135
270905.000			6.406			-2.135
271004.000			6.405			-2.135
271104.000			6.403			-2.134
271205.000			6.405			-2.135
271304.000			6.405			-2.135
271404.000			6.405			-2.135
271504.000			6.403			-2.134
271604.000			6.403			-2.134
271704.000			6.405			-2.135
271805.000			6.405			-2.135
271904.000			6.404			-2.135
272004.000			6.405			-2.135
272105.000			6.404			-2.135
272204.000			6.404			-2.135
272304.000			6.404			-2.135
272404.000			6.404			-2.135
272504.000			6.403			-2.134
272604.000			6.404			-2.135
272705.000			6.404			-2.135
272804.000			6.404			-2.135
272904.000			6.403			-2.134
273005.000			6.403			-2.134
273103.000			6.403			-2.134
273205.000			6.403			-2.134
273303.000			6.404			-2.135
273404.000			6.403			-2.134
273505.000			6.402			-2.134
273604.000			6.403			-2.134
273704.000			6.403			-2.134
273805.000			6.403			-2.134
273904.000			6.402			-2.134
274003.000			6.403			-2.134
274105.000			6.403			-2.134
274204.000			6.404			-2.135
274304.000			6.402			-2.134
274405.000			6.403			-2.134
274504.000			6.403			-2.134
274604.000			6.402			-2.134
274705.000			6.403			-2.134
274804.000			6.403			-2.134
274903.000			6.402			-2.134
275005.000			6.403			-2.134
275104.000			6.402			-2.134
275204.000			6.403			-2.134
275305.000			6.402			-2.134
275404.000			6.402			-2.134
275504.000			6.402			-2.134
275605.000			6.402			-2.134
275704.000			6.402			-2.134
275803.000			6.401			-2.134
275905.000			6.402			-2.134
276004.000			6.402			-2.134
276104.000			6.401			-2.134
276205.000			6.401			-2.134
276304.000			6.400			-2.133
276405.000			6.401			-2.134
276504.000			6.402			-2.134
276604.000			6.401			-2.134
276704.000			6.401			-2.134
276804.000			6.402			-2.134
276904.000			6.403			-2.134
277005.000			6.401			-2.134
277104.000			6.400			-2.133
277204.000			6.400			-2.133
277305.000			6.402			-2.134
277403.000			6.401			-2.134
277504.000			6.400			-2.133
277604.000			6.400			-2.133
277704.000			6.401			-2.134
277804.000			6.401			-2.134
277905.000			6.400			-2.133
278004.000			6.401			-2.134
278104.000			6.401			-2.134
278205.000			6.401			-2.134
278303.000			6.401			-2.134
278404.000			6.400			-2.133
278504.000			6.400			-2.133
278604.000			6.400			-2.133
278704.000			6.400			-2.133
278805.000			6.400			-2.133
278904.000			6.400			-2.133
279004.000			6.399			-2.133
279105.000			6.399			-2.133
279203.000			6.400			-2.133
279304.000			6.400			-2.133
279403.000			6.400			-2.133
279504.000			6.399			-2.133
279605.000			6.399			-2.133
279704.000			6.399			-2.133
279804.000			6.398			-2.133
279905.000			6.399			-2.133
280004.000			6.399			-2.133
280104.000			6.400			-2.133
280205.000			6.399			-2.133
280303.000			6.399			-2.133
280404.000			6.399			-2.133
280505.000			6.398			-2.133
280604.000			6.398			-2.133
280704.000			6.398			-2.133
280805.000			6.399			-2.133
280904.000			6.400			-2.133
281004.000			6.400			-2.133
281105.000			6.399			-2.133
281203.000			6.397			-2.132
281304.000			6.398			-2.133
281404.000			6.399			-2.133
281504.000			6.399			-2.133
281604.000			6.398			-2.133
281705.000			6.398			-2.133
281804.000			6.399			-2.133
281904.000			6.399			-2.133
282005.000			6.399			-2.133
282104.000			6.399			-2.133
282204.000			6.399			-2.133
282304.000			6.398			-2.133
282404.000			6.398			-2.133
282504.000			6.397			-2.132
282604.000			6.397			-2.132
282704.000			6.398			-2.133
282805.000			6.398			-2.133
282904.000			6.398			-2.133
283004.000			6.398			-2.133
283105.000			6.399			-2.133
283203.000			6.398			-2.133
283304.000			6.397			-2.132
283404.000			6.397			-2.132
283504.000			6.398			-2.133
283604.000			6.398			-2.133
283705.000			6.397			-2.132
283804.000			6.397			-2.132
283904.000			6.398			-2.133
284005.000			6.398			-2.133
284104.000			6.398			-2.133
284204.000			6.397			-2.132
284304.000			6.396			-2.132
284404.000			6.396			-2.132
284504.000			6.398			-2.133
284605.000			6.397			-2.132
284704.000			6.397			-2.132
284804.000			6.397			-2.132
284905.000			6.397			-2.132
285004.000			6.396			-2.132
285104.000			6.397			-2.132
285204.000			6.397			-2.132
285304.000			6.396			-2.132
285404.000			6.396			-2.132
285505.000			6.396			-2.132
285604.000			6.397			-2.132
285704.000			6.396			-2.132
285805.000			6.397			-2.132
285904.000			6.396			-2.132
286005.000			6.396			-2.132
286103.000			6.396			-2.132
286204.000			6.396			-2.132
286304.000			6.396			-2.132
286404.000			6.396			-2.132
286504.000			6.396			-2.132
286605.000			6.396			-2.132
286704.000			6.396			-2.132
286804.000			6.397			-2.132
286905.000			6.396			-2.132
287004.000			6.396			-2.132
287104.000			6.395			-2.132
287204.000			6.395			-2.132
287304.000			6.396			-2.132
287403.000			6.396			-2.132
287505.000			6.395			-2.132
287604.000			6.396			-2.132
287704.000			6.395			-2.132
287805.000			6.395			-2.132
287904.000			6.394			-2.131
288004.000			6.395			-2.132
288105.000			6.395			-2.132
288204.000			6.395			-2.132
288303.000			6.395			-2.132
288405.000			6.395			-2.132
288503.000			6.396			-2.132
288604.000			6.395			-2.132
288705.000			6.394			-2.131
288804.000			6.395			-2.132
288904.000			6.395			-2.132
289004.000			6.395			-2.132
289104.000			6.394			-2.131
289205.000			6.394			-2.131
289304.000			6.394			-2.131
289403.000			6.394			-2.131
289505.000			6.393			-2.131
289604.000			6.392			-2.131
289704.000			6.394			-2.131
289805.000			6.394			-2.131
289904.000			6.393			-2.131
290004.000			6.393			-2.131
290105.000			6.393			-2.131
290204.000			6.393			-2.131
290303.000			6.394			-2.131
290405.000			6.394			-2.131
290503.000			6.394			-2.131
290604.000			6.394			-2.131
290705.000			6.393			-2.131
290804.000			6.393			-2.131
290904.000			6.393			-2.131
291005.000			6.393			-2.131
291104.000			6.392			-2.131
291204.000			6.392			-2.131
291305.000			6.393			-2.131
291403.000			6.393			-2.131
291504.000			6.393			-2.131
291605.000			6.393			-2.131
291704.000			6.393			-2.131
291804.000			6.392			-2.131
291905.000			6.393			-2.131
292004.000			6.393			-2.131
292104.000			6.393			-2.131
292205.000			6.394			-2.131
292303.000			6.393			-2.131
292405.000			6.392			-2.131
292504.000			6.391			-2.130
292604.000			6.391			-2.130
292705.000			6.392			-2.131
292804.000			6.392			-2.131
292904.000			6.392			-2.131
293005.000			6.392			-2.131
293104.000			6.391			-2.130
293203.000			6.391			-2.130
293305.000			6.392			-2.131
293404.000			6.393			-2.131
293504.000			6.391			-2.130
293605.000			6.391			-2.130
293704.000			6.392			-2.131
293804.000			6.392			-2.131
293905.000			6.391			-2.130
294004.000			6.392			-2.131
294103.000			6.391			-2.130
294205.000			6.391			-2.130
294304.000			6.391			-2.130
294404.000			6.391			-2.130
294505.000			6.390			-2.130
294604.000			6.392			-2.131
294704.000			6.391			-2.130
294805.000			6.392			-2.131
294904.000			6.392			-2.131
295003.000			6.391			-2.130
295105.000			6.390			-2.130
295204.000			6.390			-2.130
295304.000			6.390			-2.130
295405.000			6.391			-2.130
295504.000			6.390			-2.130
295605.000			6.391			-2.130
295704.000			6.392			-2.131
295804.000			6.392			-2.131
295904.000			6.390			-2.130
296004.000			6.390			-2.130
296103.000			6.391			-2.130
296205.000			6.390			-2.130
296304.000			6.389			-2.130
296404.000			6.389			-2.130
296505.000			6.389			-2.130
296604.000			6.390			-2.130
296704.000			6.390			-2.130
296805.000			6.390			-2.130
296904.000			6.391			-2.130
297003.000			6.390			-2.130
297105.000			6.390			-2.130
297204.000			6.390			-2.130
297304.000			6.391			-2.130
297405.000			6.390			-2.130
297504.000			6.389			-2.130
297604.000			6.389			-2.130
297705.000			6.390			-2.130
297804.000			6.390			-2.130
297904.000			6.390			-2.130
298005.000			6.390			-2.130
298103.000			6.389			-2.130
298204.000			6.389			-2.130
298305.000			6.389			-2.130
298404.000			6.389			-2.130
298504.000			6.389			-2.130
298604.000			6.389			-2.130
298704.000			6.389			-2.130
298805.000			6.389			-2.130
298904.000			6.389			-2.130
299004.000			6.389			-2.130
299105.000			6.389			-2.130
299203.000			6.390			-2.130
299304.000			6.389			-2.130
299405.000			6.389			-2.130
299504.000			6.388			-2.129
299604.000			6.388			-2.129
299705.000			6.389			-2.130
299804.000			6.389			-2.130
299904.000			6.389			-2.130
