# Acquired on 26/01/2024 16:07:22 
# SPIDER: Creep_-6mm_HM077x145x38AA-1
# CREEP MEASUREMENT

# time [ms]		force [N]		stiffness [N/mm]
0.000			29.232			-4.872
104.000			29.986			-4.998
204.000			30.180			-5.030
305.000			30.113			-5.019
404.000			29.981			-4.997
503.000			29.933			-4.989
604.000			29.890			-4.982
704.000			29.852			-4.975
805.000			29.819			-4.970
904.000			29.787			-4.965
1003.000			29.758			-4.960
1105.000			29.705			-4.951
1204.000			29.683			-4.947
1304.000			29.660			-4.943
1405.000			29.639			-4.940
1504.000			29.620			-4.937
1604.000			29.601			-4.934
1704.000			29.583			-4.930
1804.000			29.566			-4.928
1904.000			29.532			-4.922
2005.000			29.518			-4.920
2104.000			29.503			-4.917
2203.000			29.489			-4.915
2305.000			29.476			-4.913
2404.000			29.464			-4.911
2504.000			29.450			-4.908
2605.000			29.425			-4.904
2704.000			29.412			-4.902
2804.000			29.401			-4.900
2904.000			29.391			-4.898
3004.000			29.380			-4.897
3104.000			29.369			-4.895
3205.000			29.359			-4.893
3304.000			29.339			-4.890
3404.000			29.330			-4.888
3505.000			29.321			-4.887
3603.000			29.311			-4.885
3705.000			29.303			-4.884
3804.000			29.295			-4.882
3904.000			29.287			-4.881
4005.000			29.268			-4.878
4103.000			29.260			-4.877
4204.000			29.251			-4.875
4305.000			29.244			-4.874
4404.000			29.237			-4.873
4504.000			29.228			-4.871
4605.000			29.219			-4.870
4704.000			29.212			-4.869
4803.000			29.198			-4.866
4905.000			29.192			-4.865
5004.000			29.186			-4.864
5104.000			29.178			-4.863
5205.000			29.171			-4.862
5304.000			29.164			-4.861
5404.000			29.157			-4.860
5504.000			29.143			-4.857
5604.000			29.138			-4.856
5704.000			29.132			-4.855
5805.000			29.125			-4.854
5904.000			29.119			-4.853
6003.000			29.113			-4.852
6105.000			29.108			-4.851
6204.000			29.097			-4.849
6304.000			29.090			-4.848
6405.000			29.085			-4.848
6504.000			29.080			-4.847
6604.000			29.073			-4.845
6704.000			29.066			-4.844
6804.000			29.061			-4.844
6905.000			29.052			-4.842
7004.000			29.046			-4.841
7104.000			29.041			-4.840
7204.000			29.035			-4.839
7304.000			29.030			-4.838
7404.000			29.025			-4.837
7505.000			29.020			-4.837
7604.000			29.016			-4.836
7704.000			29.006			-4.834
7805.000			29.002			-4.834
7903.000			28.997			-4.833
8004.000			28.992			-4.832
8105.000			28.987			-4.831
8204.000			28.982			-4.830
8304.000			28.978			-4.830
8405.000			28.969			-4.828
8504.000			28.965			-4.827
8603.000			28.961			-4.827
8705.000			28.956			-4.826
8804.000			28.951			-4.825
8904.000			28.949			-4.825
9005.000			28.945			-4.824
9104.000			28.937			-4.823
9204.000			28.933			-4.822
9304.000			28.928			-4.821
9404.000			28.924			-4.821
9504.000			28.919			-4.820
9605.000			28.916			-4.819
9704.000			28.912			-4.819
9803.000			28.909			-4.818
9905.000			28.901			-4.817
10004.000			28.898			-4.816
10105.000			28.894			-4.816
10204.000			28.891			-4.815
10304.000			28.887			-4.814
10405.000			28.883			-4.814
10503.000			28.879			-4.813
10604.000			28.872			-4.812
10705.000			28.870			-4.812
10804.000			28.865			-4.811
10904.000			28.861			-4.810
11005.000			28.858			-4.810
11104.000			28.855			-4.809
11203.000			28.852			-4.809
11305.000			28.846			-4.808
11404.000			28.842			-4.807
11504.000			28.838			-4.806
11605.000			28.835			-4.806
11704.000			28.832			-4.805
11804.000			28.829			-4.805
11904.000			28.826			-4.804
12004.000			28.818			-4.803
12104.000			28.816			-4.803
12205.000			28.813			-4.802
12304.000			28.810			-4.802
12404.000			28.806			-4.801
12505.000			28.803			-4.801
12603.000			28.800			-4.800
12704.000			28.798			-4.800
12805.000			28.793			-4.799
12904.000			28.790			-4.798
13004.000			28.786			-4.798
13105.000			28.783			-4.797
13204.000			28.781			-4.797
13303.000			28.776			-4.796
13404.000			28.775			-4.796
13504.000			28.770			-4.795
13605.000			28.767			-4.794
13704.000			28.764			-4.794
13804.000			28.760			-4.793
13905.000			28.758			-4.793
14003.000			28.756			-4.793
14104.000			28.752			-4.792
14205.000			28.747			-4.791
14304.000			28.745			-4.791
14404.000			28.742			-4.790
14505.000			28.740			-4.790
14604.000			28.738			-4.790
14703.000			28.735			-4.789
14805.000			28.732			-4.789
14904.000			28.727			-4.788
15004.000			28.724			-4.787
15105.000			28.721			-4.787
15204.000			28.719			-4.786
15304.000			28.716			-4.786
15404.000			28.713			-4.786
15504.000			28.711			-4.785
15604.000			28.706			-4.784
15705.000			28.704			-4.784
15804.000			28.702			-4.784
15904.000			28.700			-4.783
16005.000			28.698			-4.783
16104.000			28.695			-4.783
16204.000			28.692			-4.782
16304.000			28.690			-4.782
16404.000			28.686			-4.781
16505.000			28.683			-4.781
16604.000			28.680			-4.780
16704.000			28.678			-4.780
16805.000			28.677			-4.779
16904.000			28.674			-4.779
17003.000			28.672			-4.779
17105.000			28.667			-4.778
17204.000			28.665			-4.777
17304.000			28.662			-4.777
17405.000			28.660			-4.777
17504.000			28.657			-4.776
17604.000			28.655			-4.776
17704.000			28.654			-4.776
17804.000			28.650			-4.775
17904.000			28.646			-4.774
18005.000			28.645			-4.774
18104.000			28.642			-4.774
18204.000			28.641			-4.773
18305.000			28.638			-4.773
18403.000			28.636			-4.773
18504.000			28.634			-4.772
18605.000			28.630			-4.772
18704.000			28.628			-4.771
18804.000			28.626			-4.771
18905.000			28.624			-4.771
19004.000			28.621			-4.770
19103.000			28.620			-4.770
19205.000			28.619			-4.770
19304.000			28.613			-4.769
19404.000			28.611			-4.769
19505.000			28.610			-4.768
19604.000			28.607			-4.768
19705.000			28.605			-4.768
19803.000			28.604			-4.767
19904.000			28.602			-4.767
20005.000			28.597			-4.766
20104.000			28.595			-4.766
20204.000			28.593			-4.765
20304.000			28.592			-4.765
20404.000			28.590			-4.765
20503.000			28.588			-4.765
20605.000			28.586			-4.764
20704.000			28.582			-4.764
20804.000			28.581			-4.763
20905.000			28.579			-4.763
21004.000			28.577			-4.763
21104.000			28.575			-4.763
21204.000			28.574			-4.762
21304.000			28.572			-4.762
21404.000			28.570			-4.762
21505.000			28.567			-4.761
21604.000			28.565			-4.761
21703.000			28.563			-4.760
21805.000			28.561			-4.760
21904.000			28.559			-4.760
22004.000			28.558			-4.760
22105.000			28.555			-4.759
22204.000			28.551			-4.759
22304.000			28.550			-4.758
22404.000			28.549			-4.758
22504.000			28.547			-4.758
22604.000			28.545			-4.758
22705.000			28.544			-4.757
22804.000			28.542			-4.757
22905.000			28.538			-4.756
23004.000			28.537			-4.756
23103.000			28.536			-4.756
23205.000			28.535			-4.756
23304.000			28.533			-4.756
23404.000			28.532			-4.755
23505.000			28.530			-4.755
23604.000			28.527			-4.755
23704.000			28.524			-4.754
23804.000			28.523			-4.754
23904.000			28.523			-4.754
24004.000			28.522			-4.754
24105.000			28.520			-4.753
24204.000			28.518			-4.753
24304.000			28.516			-4.753
24405.000			28.513			-4.752
24503.000			28.512			-4.752
24604.000			28.510			-4.752
24705.000			28.509			-4.751
24804.000			28.507			-4.751
24904.000			28.505			-4.751
25005.000			28.504			-4.751
25104.000			28.500			-4.750
25203.000			28.499			-4.750
25305.000			28.497			-4.749
25404.000			28.495			-4.749
25504.000			28.494			-4.749
25605.000			28.493			-4.749
25704.000			28.490			-4.748
25804.000			28.487			-4.748
25904.000			28.485			-4.748
26004.000			28.484			-4.747
26105.000			28.483			-4.747
26204.000			28.481			-4.747
26304.000			28.479			-4.747
26405.000			28.479			-4.746
26504.000			28.476			-4.746
26603.000			28.474			-4.746
26705.000			28.472			-4.745
26804.000			28.471			-4.745
26904.000			28.468			-4.745
27005.000			28.466			-4.744
27104.000			28.466			-4.744
27204.000			28.464			-4.744
27304.000			28.460			-4.743
27404.000			28.459			-4.743
27504.000			28.458			-4.743
27605.000			28.456			-4.743
27704.000			28.455			-4.742
27804.000			28.454			-4.742
27905.000			28.452			-4.742
28003.000			28.450			-4.742
28104.000			28.448			-4.741
28205.000			28.448			-4.741
28304.000			28.446			-4.741
28404.000			28.445			-4.741
28505.000			28.443			-4.741
28604.000			28.442			-4.740
28703.000			28.440			-4.740
28805.000			28.438			-4.740
28904.000			28.437			-4.739
29004.000			28.436			-4.739
29105.000			28.435			-4.739
29204.000			28.434			-4.739
29305.000			28.433			-4.739
29403.000			28.432			-4.739
29504.000			28.429			-4.738
29605.000			28.428			-4.738
29704.000			28.427			-4.738
29804.000			28.426			-4.738
29905.000			28.423			-4.737
30004.000			28.422			-4.737
30103.000			28.421			-4.737
30205.000			28.419			-4.737
30304.000			28.418			-4.736
30404.000			28.416			-4.736
30505.000			28.415			-4.736
30603.000			28.413			-4.736
30704.000			28.411			-4.735
30805.000			28.410			-4.735
30904.000			28.407			-4.735
31004.000			28.407			-4.734
31105.000			28.405			-4.734
31204.000			28.404			-4.734
31303.000			28.402			-4.734
31405.000			28.400			-4.733
31504.000			28.399			-4.733
31604.000			28.396			-4.733
31705.000			28.394			-4.732
31804.000			28.394			-4.732
31904.000			28.393			-4.732
32004.000			28.391			-4.732
32104.000			28.390			-4.732
32204.000			28.389			-4.732
32305.000			28.386			-4.731
32404.000			28.385			-4.731
32505.000			28.383			-4.730
32604.000			28.381			-4.730
32703.000			28.380			-4.730
32805.000			28.380			-4.730
32904.000			28.378			-4.730
33004.000			28.377			-4.730
33105.000			28.373			-4.729
33204.000			28.373			-4.729
33304.000			28.372			-4.729
33404.000			28.371			-4.728
33504.000			28.369			-4.728
33604.000			28.367			-4.728
33705.000			28.365			-4.728
33804.000			28.363			-4.727
33904.000			28.362			-4.727
34005.000			28.361			-4.727
34103.000			28.359			-4.727
34204.000			28.359			-4.727
34305.000			28.359			-4.726
34404.000			28.356			-4.726
34504.000			28.355			-4.726
34604.000			28.353			-4.726
34704.000			28.352			-4.725
34804.000			28.351			-4.725
34905.000			28.351			-4.725
35004.000			28.350			-4.725
35104.000			28.349			-4.725
35205.000			28.347			-4.725
35303.000			28.345			-4.724
35404.000			28.344			-4.724
35505.000			28.344			-4.724
35604.000			28.343			-4.724
35705.000			28.341			-4.724
35804.000			28.341			-4.724
35904.000			28.340			-4.723
36004.000			28.337			-4.723
36104.000			28.336			-4.723
36204.000			28.335			-4.722
36305.000			28.334			-4.722
36404.000			28.334			-4.722
36504.000			28.332			-4.722
36605.000			28.331			-4.722
36703.000			28.327			-4.721
36804.000			28.327			-4.721
36905.000			28.326			-4.721
37004.000			28.324			-4.721
37104.000			28.324			-4.721
37205.000			28.324			-4.721
37304.000			28.323			-4.720
37403.000			28.319			-4.720
37505.000			28.318			-4.720
37604.000			28.316			-4.719
37704.000			28.315			-4.719
37805.000			28.315			-4.719
37904.000			28.314			-4.719
38004.000			28.313			-4.719
38104.000			28.311			-4.719
38204.000			28.310			-4.718
38304.000			28.309			-4.718
38405.000			28.307			-4.718
38504.000			28.305			-4.718
38603.000			28.304			-4.717
38705.000			28.303			-4.717
38804.000			28.301			-4.717
38905.000			28.301			-4.717
39004.000			28.299			-4.717
39104.000			28.299			-4.716
39205.000			28.296			-4.716
39303.000			28.294			-4.716
39404.000			28.294			-4.716
39505.000			28.293			-4.715
39604.000			28.290			-4.715
39704.000			28.290			-4.715
39805.000			28.288			-4.715
39904.000			28.287			-4.714
40003.000			28.286			-4.714
40105.000			28.285			-4.714
40204.000			28.284			-4.714
40304.000			28.281			-4.714
40405.000			28.281			-4.713
40504.000			28.280			-4.713
40604.000			28.279			-4.713
40704.000			28.278			-4.713
40804.000			28.277			-4.713
40904.000			28.275			-4.713
41005.000			28.275			-4.712
41104.000			28.273			-4.712
41204.000			28.272			-4.712
41305.000			28.271			-4.712
41403.000			28.268			-4.711
41504.000			28.267			-4.711
41605.000			28.267			-4.711
41704.000			28.266			-4.711
41804.000			28.265			-4.711
41905.000			28.263			-4.711
42004.000			28.262			-4.710
42103.000			28.263			-4.710
42204.000			28.260			-4.710
42304.000			28.258			-4.710
42405.000			28.258			-4.710
42504.000			28.255			-4.709
42604.000			28.254			-4.709
42705.000			28.253			-4.709
42803.000			28.252			-4.709
42904.000			28.251			-4.709
43005.000			28.251			-4.709
43104.000			28.250			-4.708
43204.000			28.247			-4.708
43304.000			28.247			-4.708
43404.000			28.247			-4.708
43503.000			28.245			-4.707
43605.000			28.243			-4.707
43704.000			28.243			-4.707
43804.000			28.243			-4.707
43905.000			28.241			-4.707
44003.000			28.239			-4.707
44104.000			28.239			-4.706
44205.000			28.237			-4.706
44304.000			28.236			-4.706
44404.000			28.236			-4.706
44505.000			28.236			-4.706
44604.000			28.234			-4.706
44703.000			28.231			-4.705
44805.000			28.229			-4.705
44904.000			28.227			-4.704
45004.000			28.227			-4.705
45105.000			28.227			-4.704
45204.000			28.226			-4.704
45305.000			28.226			-4.704
45403.000			28.224			-4.704
45504.000			28.222			-4.704
45605.000			28.221			-4.704
45704.000			28.221			-4.704
45804.000			28.220			-4.703
45905.000			28.219			-4.703
46004.000			28.218			-4.703
46103.000			28.216			-4.703
46205.000			28.216			-4.703
46304.000			28.216			-4.703
46404.000			28.213			-4.702
46505.000			28.212			-4.702
46603.000			28.211			-4.702
46704.000			28.210			-4.702
46805.000			28.209			-4.701
46904.000			28.207			-4.701
47004.000			28.207			-4.701
47105.000			28.207			-4.701
47204.000			28.205			-4.701
47303.000			28.204			-4.701
47405.000			28.203			-4.700
47504.000			28.201			-4.700
47604.000			28.200			-4.700
47705.000			28.199			-4.700
47804.000			28.199			-4.700
47904.000			28.198			-4.700
48004.000			28.196			-4.699
48104.000			28.196			-4.699
48203.000			28.195			-4.699
48305.000			28.194			-4.699
48404.000			28.193			-4.699
48505.000			28.193			-4.699
48604.000			28.192			-4.699
48704.000			28.193			-4.699
48805.000			28.192			-4.699
48903.000			28.190			-4.698
49004.000			28.187			-4.698
49105.000			28.187			-4.698
49204.000			28.186			-4.698
49304.000			28.184			-4.697
49405.000			28.183			-4.697
49504.000			28.183			-4.697
49603.000			28.181			-4.697
49705.000			28.181			-4.697
49804.000			28.180			-4.697
49904.000			28.179			-4.697
50005.000			28.179			-4.697
50104.000			28.178			-4.696
50204.000			28.177			-4.696
50304.000			28.176			-4.696
50404.000			28.175			-4.696
50504.000			28.173			-4.695
50605.000			28.172			-4.695
50704.000			28.172			-4.695
50803.000			28.171			-4.695
50905.000			28.169			-4.695
51004.000			28.168			-4.695
51104.000			28.168			-4.695
51205.000			28.166			-4.694
51304.000			28.165			-4.694
51404.000			28.165			-4.694
51504.000			28.164			-4.694
51604.000			28.163			-4.694
51705.000			28.162			-4.694
51804.000			28.162			-4.694
51904.000			28.162			-4.694
52005.000			28.160			-4.693
52104.000			28.160			-4.693
52203.000			28.159			-4.693
52305.000			28.158			-4.693
52404.000			28.157			-4.693
52504.000			28.156			-4.693
52605.000			28.155			-4.693
52704.000			28.153			-4.692
52804.000			28.153			-4.692
52904.000			28.152			-4.692
53004.000			28.150			-4.692
53104.000			28.150			-4.692
53205.000			28.150			-4.692
53304.000			28.150			-4.692
53404.000			28.147			-4.691
53505.000			28.146			-4.691
53603.000			28.145			-4.691
53704.000			28.146			-4.691
53805.000			28.145			-4.691
53904.000			28.142			-4.690
54004.000			28.142			-4.690
54104.000			28.140			-4.690
54204.000			28.139			-4.690
54303.000			28.138			-4.690
54405.000			28.139			-4.690
54504.000			28.138			-4.690
54604.000			28.136			-4.689
54705.000			28.136			-4.689
54803.000			28.135			-4.689
54905.000			28.133			-4.689
55004.000			28.132			-4.689
55104.000			28.132			-4.689
55205.000			28.131			-4.688
55304.000			28.130			-4.688
55404.000			28.130			-4.688
55504.000			28.130			-4.688
55604.000			28.128			-4.688
55704.000			28.127			-4.688
55805.000			28.127			-4.688
55904.000			28.125			-4.688
56004.000			28.124			-4.687
56105.000			28.123			-4.687
56203.000			28.123			-4.687
56304.000			28.122			-4.687
56405.000			28.121			-4.687
56504.000			28.120			-4.687
56604.000			28.119			-4.687
56705.000			28.119			-4.686
56804.000			28.118			-4.686
56903.000			28.118			-4.686
57005.000			28.116			-4.686
57104.000			28.115			-4.686
57204.000			28.113			-4.686
57305.000			28.113			-4.686
57404.000			28.113			-4.685
57504.000			28.112			-4.685
57604.000			28.110			-4.685
57704.000			28.111			-4.685
57804.000			28.109			-4.685
57905.000			28.108			-4.685
58004.000			28.108			-4.685
58103.000			28.107			-4.685
58204.000			28.106			-4.684
58303.000			28.105			-4.684
58405.000			28.105			-4.684
58504.000			28.104			-4.684
58604.000			28.103			-4.684
58705.000			28.102			-4.684
58803.000			28.100			-4.683
58904.000			28.100			-4.683
59005.000			28.099			-4.683
59104.000			28.098			-4.683
59204.000			28.097			-4.683
59305.000			28.097			-4.683
59404.000			28.096			-4.683
59503.000			28.095			-4.683
59605.000			28.094			-4.682
59704.000			28.094			-4.682
59804.000			28.094			-4.682
59905.000			28.094			-4.682
60004.000			28.091			-4.682
60104.000			28.091			-4.682
60204.000			28.090			-4.682
60304.000			28.089			-4.681
60404.000			28.088			-4.681
60505.000			28.088			-4.681
60604.000			28.088			-4.681
60704.000			28.085			-4.681
60805.000			28.085			-4.681
60903.000			28.085			-4.681
61004.000			28.084			-4.681
61105.000			28.083			-4.681
61204.000			28.083			-4.681
61305.000			28.082			-4.680
61404.000			28.080			-4.680
61504.000			28.079			-4.680
61604.000			28.078			-4.680
61704.000			28.079			-4.680
61804.000			28.077			-4.680
61905.000			28.076			-4.679
62004.000			28.076			-4.679
62104.000			28.075			-4.679
62205.000			28.075			-4.679
62303.000			28.073			-4.679
62404.000			28.072			-4.679
62505.000			28.072			-4.679
62604.000			28.071			-4.679
62704.000			28.071			-4.678
62804.000			28.069			-4.678
62904.000			28.068			-4.678
63003.000			28.068			-4.678
63105.000			28.068			-4.678
63204.000			28.067			-4.678
63304.000			28.065			-4.678
63405.000			28.065			-4.678
63503.000			28.065			-4.677
63604.000			28.064			-4.677
63705.000			28.063			-4.677
63804.000			28.062			-4.677
63904.000			28.061			-4.677
64005.000			28.060			-4.677
64104.000			28.060			-4.677
64203.000			28.060			-4.677
64305.000			28.059			-4.676
64404.000			28.058			-4.676
64505.000			28.056			-4.676
64604.000			28.056			-4.676
64704.000			28.055			-4.676
64805.000			28.054			-4.676
64903.000			28.053			-4.675
65004.000			28.053			-4.675
65105.000			28.053			-4.676
65204.000			28.052			-4.675
65304.000			28.051			-4.675
65405.000			28.051			-4.675
65504.000			28.049			-4.675
65603.000			28.049			-4.675
65705.000			28.048			-4.675
65804.000			28.048			-4.675
65904.000			28.047			-4.674
66005.000			28.046			-4.674
66104.000			28.046			-4.674
66204.000			28.045			-4.674
66304.000			28.044			-4.674
66404.000			28.044			-4.674
66504.000			28.043			-4.674
66605.000			28.041			-4.673
66704.000			28.039			-4.673
66804.000			28.040			-4.673
66905.000			28.039			-4.673
67003.000			28.038			-4.673
67104.000			28.036			-4.673
67205.000			28.036			-4.673
67304.000			28.036			-4.673
67404.000			28.035			-4.673
67505.000			28.035			-4.672
67604.000			28.033			-4.672
67703.000			28.034			-4.672
67804.000			28.033			-4.672
67904.000			28.032			-4.672
68005.000			28.031			-4.672
68104.000			28.030			-4.672
68204.000			28.029			-4.671
68305.000			28.029			-4.671
68403.000			28.030			-4.672
68504.000			28.030			-4.672
68605.000			28.028			-4.671
68704.000			28.027			-4.671
68804.000			28.026			-4.671
68905.000			28.025			-4.671
69004.000			28.024			-4.671
69103.000			28.024			-4.671
69205.000			28.024			-4.671
69304.000			28.023			-4.670
69404.000			28.022			-4.670
69505.000			28.020			-4.670
69604.000			28.019			-4.670
69704.000			28.019			-4.670
69804.000			28.019			-4.670
69904.000			28.018			-4.670
70004.000			28.017			-4.670
70105.000			28.017			-4.669
70204.000			28.016			-4.669
70304.000			28.016			-4.669
70405.000			28.014			-4.669
70503.000			28.014			-4.669
70604.000			28.014			-4.669
70705.000			28.013			-4.669
70804.000			28.012			-4.669
70905.000			28.011			-4.669
71004.000			28.010			-4.668
71104.000			28.010			-4.668
71204.000			28.009			-4.668
71304.000			28.008			-4.668
71404.000			28.008			-4.668
71505.000			28.007			-4.668
71604.000			28.007			-4.668
71704.000			28.007			-4.668
71805.000			28.007			-4.668
71903.000			28.005			-4.667
72004.000			28.004			-4.667
72105.000			28.003			-4.667
72204.000			28.002			-4.667
72304.000			28.001			-4.667
72404.000			28.000			-4.667
72504.000			28.001			-4.667
72604.000			28.000			-4.667
72705.000			27.999			-4.667
72804.000			27.998			-4.666
72904.000			27.997			-4.666
73005.000			27.997			-4.666
73103.000			27.998			-4.666
73204.000			27.996			-4.666
73304.000			27.994			-4.666
73404.000			27.995			-4.666
73504.000			27.994			-4.666
73605.000			27.993			-4.665
73704.000			27.992			-4.665
73804.000			27.991			-4.665
73905.000			27.992			-4.665
74003.000			27.991			-4.665
74105.000			27.990			-4.665
74204.000			27.990			-4.665
74304.000			27.989			-4.665
74405.000			27.988			-4.665
74504.000			27.986			-4.664
74604.000			27.986			-4.664
74704.000			27.985			-4.664
74804.000			27.986			-4.664
74904.000			27.986			-4.664
75005.000			27.985			-4.664
75104.000			27.984			-4.664
75204.000			27.983			-4.664
75305.000			27.982			-4.664
75403.000			27.981			-4.664
75504.000			27.980			-4.663
75605.000			27.979			-4.663
75704.000			27.979			-4.663
75804.000			27.980			-4.663
75905.000			27.978			-4.663
76004.000			27.977			-4.663
76104.000			27.976			-4.663
76205.000			27.976			-4.663
76303.000			27.976			-4.663
76404.000			27.976			-4.663
76505.000			27.975			-4.662
76604.000			27.974			-4.662
76704.000			27.972			-4.662
76805.000			27.972			-4.662
76904.000			27.972			-4.662
77003.000			27.972			-4.662
77105.000			27.971			-4.662
77204.000			27.970			-4.662
77305.000			27.970			-4.662
77404.000			27.969			-4.662
77504.000			27.968			-4.661
77605.000			27.969			-4.661
77704.000			27.969			-4.661
77804.000			27.968			-4.661
77904.000			27.968			-4.661
78004.000			27.967			-4.661
78104.000			27.968			-4.661
78205.000			27.968			-4.661
78304.000			27.967			-4.661
78404.000			27.967			-4.661
78505.000			27.967			-4.661
78603.000			27.966			-4.661
78704.000			27.966			-4.661
78805.000			27.966			-4.661
78904.000			27.965			-4.661
79004.000			27.965			-4.661
79105.000			27.965			-4.661
79204.000			27.964			-4.661
79303.000			27.963			-4.661
79405.000			27.963			-4.660
79503.000			27.962			-4.660
79604.000			27.962			-4.660
79705.000			27.962			-4.660
79804.000			27.962			-4.660
79904.000			27.960			-4.660
80005.000			27.959			-4.660
80104.000			27.959			-4.660
80203.000			27.958			-4.660
80305.000			27.957			-4.660
80404.000			27.957			-4.660
80505.000			27.957			-4.659
80604.000			27.955			-4.659
80704.000			27.956			-4.659
80805.000			27.955			-4.659
80903.000			27.954			-4.659
81004.000			27.953			-4.659
81105.000			27.952			-4.659
81204.000			27.951			-4.659
81304.000			27.951			-4.658
81405.000			27.949			-4.658
81504.000			27.950			-4.658
81603.000			27.949			-4.658
81705.000			27.949			-4.658
81804.000			27.946			-4.658
81904.000			27.945			-4.658
82005.000			27.947			-4.658
82104.000			27.946			-4.658
82204.000			27.945			-4.658
82304.000			27.945			-4.657
82404.000			27.944			-4.657
82504.000			27.943			-4.657
82605.000			27.942			-4.657
82704.000			27.942			-4.657
82804.000			27.942			-4.657
82905.000			27.942			-4.657
83003.000			27.941			-4.657
83104.000			27.941			-4.657
83205.000			27.940			-4.657
83304.000			27.940			-4.657
83404.000			27.939			-4.657
83505.000			27.938			-4.656
83604.000			27.938			-4.656
83703.000			27.938			-4.656
83804.000			27.938			-4.656
83903.000			27.937			-4.656
84005.000			27.936			-4.656
84104.000			27.936			-4.656
84204.000			27.936			-4.656
84305.000			27.935			-4.656
84404.000			27.934			-4.656
84504.000			27.934			-4.656
84604.000			27.934			-4.656
84704.000			27.932			-4.655
84804.000			27.932			-4.655
84905.000			27.931			-4.655
85004.000			27.931			-4.655
85104.000			27.929			-4.655
85205.000			27.929			-4.655
85303.000			27.928			-4.655
85404.000			27.928			-4.655
85505.000			27.927			-4.654
85604.000			27.924			-4.654
85704.000			27.925			-4.654
85805.000			27.926			-4.654
85904.000			27.924			-4.654
86003.000			27.924			-4.654
86105.000			27.922			-4.654
86204.000			27.921			-4.653
86304.000			27.921			-4.654
86405.000			27.921			-4.654
86504.000			27.920			-4.653
86604.000			27.919			-4.653
86704.000			27.918			-4.653
86804.000			27.916			-4.653
86905.000			27.917			-4.653
87004.000			27.917			-4.653
87104.000			27.915			-4.652
87205.000			27.914			-4.652
87304.000			27.913			-4.652
87403.000			27.912			-4.652
87505.000			27.912			-4.652
87604.000			27.911			-4.652
87704.000			27.910			-4.652
87805.000			27.911			-4.652
87904.000			27.910			-4.652
88004.000			27.909			-4.651
88104.000			27.908			-4.651
88204.000			27.908			-4.651
88303.000			27.908			-4.651
88405.000			27.907			-4.651
88504.000			27.906			-4.651
88604.000			27.905			-4.651
88705.000			27.905			-4.651
88804.000			27.905			-4.651
88904.000			27.904			-4.651
89004.000			27.904			-4.651
89104.000			27.903			-4.650
89204.000			27.902			-4.650
89305.000			27.901			-4.650
89404.000			27.901			-4.650
89504.000			27.901			-4.650
89605.000			27.900			-4.650
89703.000			27.900			-4.650
89804.000			27.899			-4.650
89905.000			27.898			-4.650
90004.000			27.898			-4.650
90105.000			27.897			-4.650
90204.000			27.897			-4.650
90304.000			27.897			-4.649
90404.000			27.896			-4.649
90504.000			27.894			-4.649
90603.000			27.894			-4.649
90705.000			27.895			-4.649
90804.000			27.894			-4.649
90904.000			27.894			-4.649
91005.000			27.894			-4.649
91104.000			27.894			-4.649
91204.000			27.892			-4.649
91304.000			27.893			-4.649
91404.000			27.892			-4.649
91504.000			27.890			-4.648
91605.000			27.890			-4.648
91704.000			27.890			-4.648
91804.000			27.889			-4.648
91905.000			27.888			-4.648
92003.000			27.887			-4.648
92104.000			27.888			-4.648
92205.000			27.887			-4.648
92304.000			27.886			-4.648
92404.000			27.886			-4.648
92505.000			27.885			-4.647
92604.000			27.884			-4.647
92703.000			27.882			-4.647
92805.000			27.882			-4.647
92904.000			27.881			-4.647
93004.000			27.881			-4.647
93105.000			27.881			-4.647
93204.000			27.881			-4.647
93305.000			27.880			-4.647
93404.000			27.879			-4.646
93504.000			27.878			-4.646
93604.000			27.877			-4.646
93704.000			27.878			-4.646
93804.000			27.877			-4.646
93905.000			27.876			-4.646
94004.000			27.875			-4.646
94104.000			27.875			-4.646
94205.000			27.873			-4.646
94303.000			27.873			-4.646
94404.000			27.872			-4.645
94505.000			27.873			-4.645
94604.000			27.873			-4.645
94704.000			27.872			-4.645
94805.000			27.870			-4.645
94904.000			27.870			-4.645
95003.000			27.869			-4.645
95105.000			27.870			-4.645
95204.000			27.868			-4.645
95304.000			27.868			-4.645
95405.000			27.868			-4.645
95504.000			27.867			-4.645
95604.000			27.867			-4.645
95704.000			27.866			-4.644
95804.000			27.865			-4.644
95903.000			27.866			-4.644
96005.000			27.865			-4.644
96104.000			27.865			-4.644
96204.000			27.865			-4.644
96305.000			27.864			-4.644
96404.000			27.863			-4.644
96505.000			27.863			-4.644
96603.000			27.863			-4.644
96704.000			27.863			-4.644
96805.000			27.863			-4.644
96904.000			27.862			-4.644
97004.000			27.860			-4.643
97105.000			27.862			-4.644
97204.000			27.861			-4.643
97303.000			27.860			-4.643
97405.000			27.860			-4.643
97504.000			27.858			-4.643
97604.000			27.858			-4.643
97705.000			27.858			-4.643
97804.000			27.857			-4.643
97904.000			27.857			-4.643
98005.000			27.857			-4.643
98104.000			27.857			-4.643
98203.000			27.856			-4.643
98305.000			27.855			-4.642
98404.000			27.854			-4.642
98504.000			27.854			-4.642
98605.000			27.854			-4.642
98704.000			27.854			-4.642
98804.000			27.853			-4.642
98904.000			27.854			-4.642
99004.000			27.853			-4.642
99104.000			27.852			-4.642
99205.000			27.852			-4.642
99304.000			27.851			-4.642
99404.000			27.850			-4.642
99505.000			27.851			-4.642
99603.000			27.852			-4.642
99705.000			27.851			-4.642
99804.000			27.849			-4.641
99904.000			27.849			-4.642
100005.000			27.850			-4.642
100104.000			27.849			-4.641
100204.000			27.848			-4.641
100305.000			27.847			-4.641
100404.000			27.846			-4.641
100503.000			27.846			-4.641
100605.000			27.846			-4.641
100704.000			27.845			-4.641
100804.000			27.845			-4.641
100905.000			27.845			-4.641
101004.000			27.844			-4.641
101104.000			27.844			-4.641
101204.000			27.843			-4.640
101304.000			27.844			-4.641
101404.000			27.844			-4.641
101505.000			27.842			-4.640
101604.000			27.841			-4.640
101704.000			27.840			-4.640
101805.000			27.840			-4.640
101903.000			27.840			-4.640
102004.000			27.840			-4.640
102105.000			27.837			-4.640
102204.000			27.836			-4.639
102304.000			27.837			-4.639
102405.000			27.837			-4.640
102504.000			27.836			-4.639
102603.000			27.835			-4.639
102705.000			27.835			-4.639
102804.000			27.834			-4.639
102905.000			27.833			-4.639
103004.000			27.831			-4.639
103104.000			27.831			-4.638
103205.000			27.831			-4.639
103303.000			27.830			-4.638
103404.000			27.830			-4.638
103505.000			27.829			-4.638
103604.000			27.828			-4.638
103704.000			27.828			-4.638
103805.000			27.828			-4.638
103904.000			27.827			-4.638
104004.000			27.827			-4.638
104105.000			27.825			-4.638
104203.000			27.825			-4.637
104304.000			27.824			-4.637
104405.000			27.823			-4.637
104504.000			27.823			-4.637
104604.000			27.823			-4.637
104705.000			27.823			-4.637
104804.000			27.822			-4.637
104903.000			27.821			-4.637
105005.000			27.821			-4.637
105104.000			27.820			-4.637
105204.000			27.819			-4.637
105305.000			27.819			-4.636
105404.000			27.819			-4.636
105504.000			27.818			-4.636
105604.000			27.817			-4.636
105704.000			27.815			-4.636
105804.000			27.815			-4.636
105905.000			27.815			-4.636
106004.000			27.815			-4.636
106105.000			27.815			-4.636
106204.000			27.814			-4.636
106303.000			27.814			-4.636
106405.000			27.814			-4.636
106504.000			27.812			-4.635
106604.000			27.810			-4.635
106705.000			27.811			-4.635
106804.000			27.812			-4.635
106904.000			27.813			-4.635
107004.000			27.811			-4.635
107104.000			27.809			-4.635
107203.000			27.809			-4.635
107305.000			27.809			-4.635
107404.000			27.808			-4.635
107504.000			27.808			-4.635
107605.000			27.808			-4.635
107704.000			27.807			-4.635
107804.000			27.806			-4.634
107904.000			27.805			-4.634
108004.000			27.804			-4.634
108104.000			27.804			-4.634
108205.000			27.805			-4.634
108304.000			27.804			-4.634
108404.000			27.803			-4.634
108505.000			27.803			-4.634
108603.000			27.802			-4.634
108704.000			27.801			-4.633
108805.000			27.802			-4.634
108904.000			27.801			-4.633
109004.000			27.800			-4.633
109105.000			27.799			-4.633
109204.000			27.799			-4.633
109303.000			27.799			-4.633
109404.000			27.799			-4.633
109503.000			27.798			-4.633
109605.000			27.797			-4.633
109704.000			27.797			-4.633
109804.000			27.797			-4.633
109905.000			27.797			-4.633
110004.000			27.796			-4.633
110104.000			27.795			-4.633
110204.000			27.794			-4.632
110304.000			27.795			-4.632
110404.000			27.796			-4.633
110505.000			27.794			-4.632
110604.000			27.794			-4.632
110704.000			27.794			-4.632
110805.000			27.794			-4.632
110903.000			27.792			-4.632
111004.000			27.791			-4.632
111105.000			27.790			-4.632
111204.000			27.791			-4.632
111304.000			27.791			-4.632
111405.000			27.790			-4.632
111504.000			27.790			-4.632
111603.000			27.789			-4.632
111705.000			27.789			-4.631
111804.000			27.787			-4.631
111904.000			27.787			-4.631
112005.000			27.788			-4.631
112104.000			27.788			-4.631
112204.000			27.786			-4.631
112305.000			27.787			-4.631
112404.000			27.787			-4.631
112503.000			27.786			-4.631
112604.000			27.786			-4.631
112704.000			27.786			-4.631
112805.000			27.784			-4.631
112904.000			27.783			-4.631
113004.000			27.782			-4.630
113105.000			27.783			-4.630
113203.000			27.782			-4.630
113304.000			27.781			-4.630
113405.000			27.781			-4.630
113504.000			27.781			-4.630
113604.000			27.781			-4.630
113705.000			27.779			-4.630
113804.000			27.778			-4.630
113904.000			27.779			-4.630
114005.000			27.779			-4.630
114103.000			27.778			-4.630
114204.000			27.777			-4.629
114305.000			27.776			-4.629
114404.000			27.775			-4.629
114504.000			27.775			-4.629
114605.000			27.775			-4.629
114704.000			27.775			-4.629
114803.000			27.775			-4.629
114905.000			27.774			-4.629
115004.000			27.773			-4.629
115104.000			27.774			-4.629
115205.000			27.772			-4.629
115304.000			27.771			-4.629
115404.000			27.772			-4.629
115504.000			27.772			-4.629
115604.000			27.771			-4.629
115703.000			27.772			-4.629
115804.000			27.771			-4.629
115904.000			27.771			-4.629
116005.000			27.771			-4.628
116104.000			27.770			-4.628
116204.000			27.769			-4.628
116305.000			27.768			-4.628
116403.000			27.768			-4.628
116504.000			27.768			-4.628
116605.000			27.767			-4.628
116704.000			27.766			-4.628
116804.000			27.767			-4.628
116905.000			27.766			-4.628
117004.000			27.765			-4.628
117103.000			27.765			-4.628
117205.000			27.766			-4.628
117304.000			27.764			-4.627
117404.000			27.764			-4.627
117505.000			27.764			-4.627
117604.000			27.764			-4.627
117704.000			27.763			-4.627
117805.000			27.763			-4.627
117904.000			27.763			-4.627
118003.000			27.762			-4.627
118105.000			27.760			-4.627
118204.000			27.760			-4.627
118304.000			27.760			-4.627
118405.000			27.760			-4.627
118504.000			27.760			-4.627
118604.000			27.759			-4.626
118704.000			27.758			-4.626
118804.000			27.758			-4.626
118905.000			27.757			-4.626
119004.000			27.757			-4.626
119104.000			27.758			-4.626
119205.000			27.757			-4.626
119304.000			27.756			-4.626
119404.000			27.756			-4.626
119505.000			27.756			-4.626
119603.000			27.755			-4.626
119704.000			27.754			-4.626
119805.000			27.754			-4.626
119904.000			27.753			-4.626
120004.000			27.754			-4.626
120105.000			27.753			-4.626
120204.000			27.752			-4.625
120303.000			27.751			-4.625
120405.000			27.751			-4.625
120504.000			27.750			-4.625
120604.000			27.751			-4.625
120705.000			27.751			-4.625
120804.000			27.750			-4.625
120904.000			27.749			-4.625
121004.000			27.749			-4.625
121104.000			27.749			-4.625
121204.000			27.747			-4.625
121305.000			27.747			-4.625
121404.000			27.746			-4.624
121504.000			27.746			-4.624
121605.000			27.746			-4.624
121703.000			27.745			-4.624
121804.000			27.745			-4.624
121904.000			27.745			-4.624
122004.000			27.745			-4.624
122105.000			27.744			-4.624
122204.000			27.744			-4.624
122304.000			27.745			-4.624
122405.000			27.744			-4.624
122504.000			27.743			-4.624
122603.000			27.741			-4.624
122705.000			27.741			-4.624
122804.000			27.741			-4.623
122904.000			27.741			-4.624
123005.000			27.740			-4.623
123104.000			27.741			-4.624
123204.000			27.740			-4.623
123304.000			27.740			-4.623
123404.000			27.739			-4.623
123504.000			27.738			-4.623
123605.000			27.738			-4.623
123704.000			27.738			-4.623
123804.000			27.737			-4.623
123905.000			27.737			-4.623
124003.000			27.736			-4.623
124104.000			27.735			-4.623
124205.000			27.735			-4.623
124304.000			27.735			-4.623
124404.000			27.735			-4.622
124505.000			27.735			-4.623
124604.000			27.734			-4.622
124703.000			27.733			-4.622
124805.000			27.733			-4.622
124904.000			27.732			-4.622
125004.000			27.732			-4.622
125105.000			27.732			-4.622
125204.000			27.732			-4.622
125305.000			27.731			-4.622
125404.000			27.730			-4.622
125504.000			27.730			-4.622
125604.000			27.730			-4.622
125704.000			27.730			-4.622
125804.000			27.729			-4.621
125905.000			27.728			-4.621
126004.000			27.727			-4.621
126104.000			27.727			-4.621
126205.000			27.727			-4.621
126303.000			27.727			-4.621
126404.000			27.727			-4.621
126505.000			27.727			-4.621
126604.000			27.727			-4.621
126704.000			27.725			-4.621
126805.000			27.724			-4.621
126904.000			27.724			-4.621
127003.000			27.725			-4.621
127105.000			27.725			-4.621
127204.000			27.724			-4.621
127304.000			27.723			-4.621
127405.000			27.723			-4.621
127504.000			27.723			-4.620
127604.000			27.722			-4.620
127704.000			27.722			-4.620
127804.000			27.721			-4.620
127903.000			27.721			-4.620
128005.000			27.721			-4.620
128104.000			27.720			-4.620
128204.000			27.719			-4.620
128305.000			27.718			-4.620
128404.000			27.718			-4.620
128505.000			27.717			-4.620
128603.000			27.717			-4.620
128704.000			27.717			-4.620
128805.000			27.717			-4.620
128904.000			27.718			-4.620
129004.000			27.717			-4.620
129105.000			27.718			-4.620
129204.000			27.717			-4.620
129303.000			27.716			-4.619
129405.000			27.716			-4.619
129504.000			27.715			-4.619
129604.000			27.715			-4.619
129705.000			27.714			-4.619
129804.000			27.713			-4.619
129904.000			27.713			-4.619
130005.000			27.713			-4.619
130104.000			27.713			-4.619
130203.000			27.712			-4.619
130305.000			27.711			-4.618
130404.000			27.711			-4.619
130504.000			27.712			-4.619
130605.000			27.712			-4.619
130704.000			27.710			-4.618
130804.000			27.710			-4.618
130904.000			27.710			-4.618
131004.000			27.710			-4.618
131104.000			27.708			-4.618
131205.000			27.707			-4.618
131304.000			27.707			-4.618
131404.000			27.708			-4.618
131505.000			27.707			-4.618
131603.000			27.708			-4.618
131705.000			27.707			-4.618
131804.000			27.707			-4.618
131904.000			27.706			-4.618
132005.000			27.705			-4.618
132104.000			27.704			-4.617
132204.000			27.704			-4.617
132305.000			27.704			-4.617
132404.000			27.703			-4.617
132503.000			27.703			-4.617
132605.000			27.703			-4.617
132704.000			27.702			-4.617
132804.000			27.703			-4.617
132905.000			27.703			-4.617
133004.000			27.702			-4.617
133104.000			27.702			-4.617
133205.000			27.701			-4.617
133304.000			27.701			-4.617
133403.000			27.701			-4.617
133505.000			27.700			-4.617
133604.000			27.699			-4.617
133704.000			27.698			-4.616
133805.000			27.698			-4.616
133904.000			27.699			-4.616
134004.000			27.697			-4.616
134105.000			27.697			-4.616
134204.000			27.697			-4.616
134303.000			27.697			-4.616
134405.000			27.696			-4.616
134504.000			27.695			-4.616
134604.000			27.697			-4.616
134705.000			27.695			-4.616
134804.000			27.695			-4.616
134905.000			27.695			-4.616
135004.000			27.694			-4.616
135104.000			27.694			-4.616
135204.000			27.694			-4.616
135304.000			27.692			-4.615
135403.000			27.691			-4.615
135505.000			27.691			-4.615
135604.000			27.692			-4.615
135704.000			27.692			-4.615
135805.000			27.691			-4.615
135904.000			27.691			-4.615
136004.000			27.691			-4.615
136104.000			27.691			-4.615
136204.000			27.689			-4.615
136303.000			27.689			-4.615
136405.000			27.690			-4.615
136504.000			27.690			-4.615
136604.000			27.688			-4.615
136705.000			27.688			-4.615
136804.000			27.687			-4.615
136904.000			27.687			-4.614
137004.000			27.687			-4.614
137104.000			27.686			-4.614
137203.000			27.684			-4.614
137305.000			27.685			-4.614
137404.000			27.685			-4.614
137504.000			27.686			-4.614
137605.000			27.686			-4.614
137704.000			27.685			-4.614
137804.000			27.683			-4.614
137905.000			27.684			-4.614
138004.000			27.684			-4.614
138103.000			27.684			-4.614
138204.000			27.683			-4.614
138304.000			27.682			-4.614
138405.000			27.682			-4.614
138504.000			27.681			-4.614
138604.000			27.682			-4.614
138705.000			27.681			-4.614
138804.000			27.680			-4.613
138904.000			27.680			-4.613
139004.000			27.680			-4.613
139104.000			27.678			-4.613
139203.000			27.679			-4.613
139305.000			27.679			-4.613
139404.000			27.679			-4.613
139504.000			27.678			-4.613
139605.000			27.678			-4.613
139704.000			27.676			-4.613
139804.000			27.677			-4.613
139905.000			27.677			-4.613
140004.000			27.675			-4.613
140103.000			27.675			-4.613
140205.000			27.676			-4.613
140304.000			27.675			-4.612
140404.000			27.675			-4.612
140505.000			27.674			-4.612
140604.000			27.673			-4.612
140704.000			27.673			-4.612
140805.000			27.672			-4.612
140904.000			27.672			-4.612
141003.000			27.673			-4.612
141105.000			27.672			-4.612
141204.000			27.672			-4.612
141305.000			27.670			-4.612
141404.000			27.671			-4.612
141504.000			27.671			-4.612
141605.000			27.670			-4.612
141704.000			27.670			-4.612
141804.000			27.671			-4.612
141904.000			27.670			-4.612
142004.000			27.670			-4.612
142104.000			27.668			-4.611
142205.000			27.669			-4.611
142304.000			27.667			-4.611
142404.000			27.667			-4.611
142505.000			27.668			-4.611
142604.000			27.668			-4.611
142704.000			27.666			-4.611
142804.000			27.665			-4.611
142904.000			27.665			-4.611
143004.000			27.665			-4.611
143105.000			27.665			-4.611
143204.000			27.665			-4.611
143304.000			27.664			-4.611
143405.000			27.663			-4.611
143504.000			27.664			-4.611
143604.000			27.663			-4.611
143704.000			27.663			-4.610
143804.000			27.663			-4.610
143904.000			27.662			-4.610
144005.000			27.662			-4.610
144104.000			27.661			-4.610
144204.000			27.660			-4.610
144305.000			27.661			-4.610
144404.000			27.661			-4.610
144505.000			27.661			-4.610
144603.000			27.660			-4.610
144704.000			27.659			-4.610
144805.000			27.659			-4.610
144904.000			27.658			-4.610
145004.000			27.659			-4.610
145105.000			27.659			-4.610
145204.000			27.657			-4.610
145304.000			27.657			-4.610
145405.000			27.659			-4.610
145503.000			27.658			-4.610
145604.000			27.655			-4.609
145704.000			27.656			-4.609
145804.000			27.656			-4.609
145904.000			27.655			-4.609
146005.000			27.654			-4.609
146104.000			27.654			-4.609
146204.000			27.654			-4.609
146305.000			27.655			-4.609
146403.000			27.654			-4.609
146504.000			27.654			-4.609
146604.000			27.654			-4.609
146704.000			27.653			-4.609
146804.000			27.653			-4.609
146905.000			27.653			-4.609
147004.000			27.652			-4.609
147104.000			27.650			-4.608
147205.000			27.651			-4.608
147304.000			27.651			-4.609
147404.000			27.651			-4.608
147504.000			27.649			-4.608
147604.000			27.649			-4.608
147705.000			27.649			-4.608
147804.000			27.648			-4.608
147904.000			27.648			-4.608
148005.000			27.647			-4.608
148104.000			27.647			-4.608
148204.000			27.646			-4.608
148305.000			27.646			-4.608
148403.000			27.647			-4.608
148504.000			27.646			-4.608
148605.000			27.646			-4.608
148704.000			27.646			-4.608
148804.000			27.645			-4.608
148905.000			27.644			-4.607
149004.000			27.645			-4.607
149104.000			27.645			-4.608
149205.000			27.645			-4.607
149303.000			27.644			-4.607
149404.000			27.644			-4.607
149504.000			27.643			-4.607
149604.000			27.641			-4.607
149704.000			27.641			-4.607
149805.000			27.642			-4.607
149904.000			27.642			-4.607
150004.000			27.641			-4.607
150105.000			27.640			-4.607
150203.000			27.640			-4.607
150304.000			27.639			-4.607
150404.000			27.640			-4.607
150504.000			27.640			-4.607
150604.000			27.640			-4.607
150705.000			27.639			-4.607
150804.000			27.638			-4.606
150905.000			27.638			-4.606
151004.000			27.638			-4.606
151103.000			27.638			-4.606
151205.000			27.637			-4.606
151303.000			27.636			-4.606
151404.000			27.636			-4.606
151505.000			27.635			-4.606
151604.000			27.634			-4.606
151704.000			27.634			-4.606
151805.000			27.635			-4.606
151904.000			27.635			-4.606
152003.000			27.635			-4.606
152105.000			27.634			-4.606
152204.000			27.632			-4.605
152304.000			27.633			-4.605
152405.000			27.632			-4.605
152504.000			27.633			-4.605
152604.000			27.633			-4.605
152705.000			27.631			-4.605
152804.000			27.630			-4.605
152903.000			27.630			-4.605
153005.000			27.630			-4.605
153104.000			27.630			-4.605
153204.000			27.630			-4.605
153305.000			27.630			-4.605
153404.000			27.628			-4.605
153504.000			27.628			-4.605
153605.000			27.629			-4.605
153704.000			27.628			-4.605
153803.000			27.628			-4.605
153905.000			27.628			-4.605
154004.000			27.627			-4.604
154105.000			27.627			-4.604
154204.000			27.627			-4.605
154304.000			27.627			-4.605
154405.000			27.628			-4.605
154504.000			27.627			-4.604
154604.000			27.626			-4.604
154704.000			27.625			-4.604
154804.000			27.624			-4.604
154903.000			27.624			-4.604
155005.000			27.625			-4.604
155104.000			27.624			-4.604
155204.000			27.625			-4.604
155305.000			27.625			-4.604
155404.000			27.625			-4.604
155504.000			27.623			-4.604
155604.000			27.622			-4.604
155704.000			27.622			-4.604
155803.000			27.623			-4.604
155905.000			27.622			-4.604
156004.000			27.621			-4.604
156104.000			27.621			-4.603
156205.000			27.621			-4.603
156304.000			27.620			-4.603
156404.000			27.620			-4.603
156504.000			27.620			-4.603
156604.000			27.619			-4.603
156703.000			27.619			-4.603
156805.000			27.619			-4.603
156904.000			27.618			-4.603
157004.000			27.617			-4.603
157105.000			27.618			-4.603
157204.000			27.617			-4.603
157305.000			27.616			-4.603
157404.000			27.618			-4.603
157504.000			27.617			-4.603
157604.000			27.617			-4.603
157704.000			27.615			-4.603
157804.000			27.615			-4.602
157905.000			27.614			-4.602
158004.000			27.613			-4.602
158104.000			27.614			-4.602
158205.000			27.614			-4.602
158304.000			27.614			-4.602
158404.000			27.613			-4.602
158504.000			27.612			-4.602
158604.000			27.612			-4.602
158704.000			27.612			-4.602
158805.000			27.611			-4.602
158904.000			27.610			-4.602
159004.000			27.610			-4.602
159105.000			27.610			-4.602
159204.000			27.609			-4.602
159304.000			27.609			-4.602
159404.000			27.609			-4.602
159504.000			27.610			-4.602
159604.000			27.608			-4.601
159705.000			27.607			-4.601
159804.000			27.607			-4.601
159904.000			27.606			-4.601
160005.000			27.606			-4.601
160104.000			27.607			-4.601
160204.000			27.607			-4.601
160304.000			27.606			-4.601
160404.000			27.606			-4.601
160505.000			27.605			-4.601
160604.000			27.604			-4.601
160704.000			27.604			-4.601
160805.000			27.605			-4.601
160904.000			27.604			-4.601
161004.000			27.603			-4.601
161105.000			27.604			-4.601
161203.000			27.604			-4.601
161304.000			27.603			-4.601
161405.000			27.602			-4.600
161504.000			27.603			-4.600
161604.000			27.602			-4.600
161705.000			27.602			-4.600
161804.000			27.602			-4.600
161903.000			27.601			-4.600
162005.000			27.600			-4.600
162103.000			27.601			-4.600
162204.000			27.601			-4.600
162305.000			27.599			-4.600
162404.000			27.599			-4.600
162504.000			27.599			-4.600
162605.000			27.599			-4.600
162704.000			27.598			-4.600
162803.000			27.599			-4.600
162905.000			27.599			-4.600
163003.000			27.598			-4.600
163104.000			27.597			-4.600
163205.000			27.596			-4.599
163304.000			27.596			-4.599
163404.000			27.596			-4.599
163505.000			27.596			-4.599
163604.000			27.597			-4.599
163705.000			27.596			-4.599
163804.000			27.597			-4.599
163903.000			27.596			-4.599
164005.000			27.594			-4.599
164104.000			27.594			-4.599
164204.000			27.594			-4.599
164305.000			27.594			-4.599
164404.000			27.594			-4.599
164504.000			27.593			-4.599
164605.000			27.593			-4.599
164704.000			27.593			-4.599
164803.000			27.593			-4.599
164905.000			27.592			-4.599
165003.000			27.591			-4.599
165104.000			27.592			-4.599
165205.000			27.592			-4.599
165304.000			27.590			-4.598
165404.000			27.590			-4.598
165505.000			27.589			-4.598
165604.000			27.589			-4.598
165703.000			27.590			-4.598
165805.000			27.589			-4.598
165903.000			27.588			-4.598
166004.000			27.589			-4.598
166105.000			27.588			-4.598
166204.000			27.587			-4.598
166304.000			27.587			-4.598
166405.000			27.587			-4.598
166504.000			27.587			-4.598
166604.000			27.586			-4.598
166705.000			27.587			-4.598
166803.000			27.586			-4.598
166905.000			27.586			-4.598
167004.000			27.586			-4.598
167104.000			27.585			-4.598
167205.000			27.585			-4.597
167304.000			27.585			-4.598
167404.000			27.584			-4.597
167505.000			27.583			-4.597
167604.000			27.583			-4.597
167703.000			27.584			-4.597
167805.000			27.584			-4.597
167903.000			27.583			-4.597
168004.000			27.582			-4.597
168105.000			27.582			-4.597
168204.000			27.582			-4.597
168304.000			27.582			-4.597
168405.000			27.582			-4.597
168504.000			27.581			-4.597
168604.000			27.580			-4.597
168705.000			27.580			-4.597
168803.000			27.580			-4.597
168904.000			27.581			-4.597
169005.000			27.580			-4.597
169104.000			27.579			-4.597
169204.000			27.579			-4.597
169305.000			27.579			-4.597
169404.000			27.578			-4.596
169504.000			27.577			-4.596
169605.000			27.577			-4.596
169703.000			27.577			-4.596
169804.000			27.577			-4.596
169904.000			27.577			-4.596
170004.000			27.576			-4.596
170105.000			27.576			-4.596
170204.000			27.576			-4.596
170304.000			27.575			-4.596
170405.000			27.575			-4.596
170504.000			27.575			-4.596
170603.000			27.574			-4.596
170705.000			27.574			-4.596
170803.000			27.574			-4.596
170904.000			27.573			-4.596
171005.000			27.574			-4.596
171104.000			27.573			-4.595
171204.000			27.572			-4.595
171305.000			27.572			-4.595
171404.000			27.572			-4.595
171503.000			27.572			-4.595
171605.000			27.572			-4.595
171703.000			27.571			-4.595
171804.000			27.569			-4.595
171905.000			27.569			-4.595
172004.000			27.570			-4.595
172104.000			27.570			-4.595
172205.000			27.570			-4.595
172304.000			27.569			-4.595
172403.000			27.568			-4.595
172505.000			27.569			-4.595
172603.000			27.568			-4.595
172704.000			27.568			-4.595
172805.000			27.568			-4.595
172904.000			27.568			-4.595
173004.000			27.568			-4.595
173105.000			27.567			-4.595
173204.000			27.567			-4.594
173305.000			27.567			-4.594
173404.000			27.566			-4.594
173503.000			27.566			-4.594
173605.000			27.566			-4.594
173704.000			27.566			-4.594
173804.000			27.566			-4.594
173905.000			27.567			-4.594
174004.000			27.565			-4.594
174104.000			27.564			-4.594
174205.000			27.564			-4.594
174304.000			27.564			-4.594
174403.000			27.564			-4.594
174505.000			27.563			-4.594
174603.000			27.563			-4.594
174704.000			27.562			-4.594
174805.000			27.563			-4.594
174904.000			27.562			-4.594
175004.000			27.561			-4.594
175105.000			27.561			-4.594
175204.000			27.561			-4.594
175303.000			27.561			-4.594
175405.000			27.563			-4.594
175503.000			27.562			-4.594
175604.000			27.562			-4.594
175705.000			27.563			-4.594
175804.000			27.562			-4.594
175904.000			27.563			-4.594
176005.000			27.563			-4.594
176104.000			27.563			-4.594
176203.000			27.562			-4.594
176305.000			27.561			-4.594
176403.000			27.561			-4.593
176505.000			27.562			-4.594
176604.000			27.561			-4.594
176704.000			27.561			-4.594
176805.000			27.562			-4.594
176904.000			27.561			-4.593
177004.000			27.561			-4.593
177105.000			27.561			-4.593
177204.000			27.561			-4.593
177303.000			27.561			-4.594
177405.000			27.561			-4.594
177504.000			27.561			-4.593
177604.000			27.561			-4.593
177705.000			27.560			-4.593
177804.000			27.559			-4.593
177904.000			27.558			-4.593
178005.000			27.559			-4.593
178104.000			27.559			-4.593
178203.000			27.558			-4.593
178305.000			27.557			-4.593
178404.000			27.558			-4.593
178504.000			27.558			-4.593
178605.000			27.557			-4.593
178704.000			27.556			-4.593
178804.000			27.557			-4.593
178905.000			27.556			-4.593
179004.000			27.555			-4.593
179103.000			27.555			-4.593
179205.000			27.555			-4.592
179303.000			27.554			-4.592
179404.000			27.553			-4.592
179505.000			27.552			-4.592
179604.000			27.552			-4.592
179705.000			27.552			-4.592
179804.000			27.552			-4.592
179904.000			27.552			-4.592
180005.000			27.551			-4.592
180104.000			27.551			-4.592
180203.000			27.551			-4.592
180305.000			27.550			-4.592
180404.000			27.549			-4.591
180504.000			27.549			-4.592
180605.000			27.548			-4.591
180704.000			27.548			-4.591
180804.000			27.547			-4.591
180905.000			27.547			-4.591
181004.000			27.547			-4.591
181103.000			27.546			-4.591
181205.000			27.546			-4.591
181304.000			27.545			-4.591
181404.000			27.545			-4.591
181505.000			27.545			-4.591
181604.000			27.545			-4.591
181704.000			27.545			-4.591
181805.000			27.544			-4.591
181904.000			27.542			-4.590
182003.000			27.543			-4.590
182105.000			27.542			-4.590
182204.000			27.542			-4.590
182304.000			27.541			-4.590
182405.000			27.541			-4.590
182504.000			27.542			-4.590
182604.000			27.542			-4.590
182705.000			27.539			-4.590
182804.000			27.539			-4.590
182903.000			27.540			-4.590
183004.000			27.540			-4.590
183104.000			27.539			-4.590
183205.000			27.539			-4.590
183304.000			27.538			-4.590
183404.000			27.538			-4.590
183505.000			27.538			-4.590
183604.000			27.538			-4.590
183704.000			27.538			-4.590
183804.000			27.537			-4.589
183904.000			27.537			-4.590
184004.000			27.537			-4.590
184105.000			27.536			-4.589
184204.000			27.536			-4.589
184304.000			27.535			-4.589
184405.000			27.534			-4.589
184504.000			27.535			-4.589
184604.000			27.535			-4.589
184704.000			27.536			-4.589
184804.000			27.535			-4.589
184903.000			27.534			-4.589
185005.000			27.534			-4.589
185104.000			27.534			-4.589
185204.000			27.533			-4.589
185305.000			27.532			-4.589
185404.000			27.533			-4.589
185504.000			27.533			-4.589
185604.000			27.533			-4.589
185704.000			27.532			-4.589
185803.000			27.533			-4.589
185905.000			27.533			-4.589
186004.000			27.532			-4.589
186105.000			27.531			-4.589
186204.000			27.531			-4.589
186304.000			27.532			-4.589
186405.000			27.532			-4.589
186503.000			27.532			-4.589
186604.000			27.532			-4.589
186704.000			27.532			-4.589
186804.000			27.532			-4.589
186904.000			27.531			-4.589
187005.000			27.530			-4.588
187104.000			27.530			-4.588
187204.000			27.529			-4.588
187305.000			27.529			-4.588
187404.000			27.529			-4.588
187504.000			27.529			-4.588
187604.000			27.528			-4.588
187704.000			27.527			-4.588
187804.000			27.527			-4.588
187905.000			27.527			-4.588
188004.000			27.527			-4.588
188104.000			27.526			-4.588
188205.000			27.526			-4.588
188304.000			27.526			-4.588
188404.000			27.526			-4.588
188504.000			27.525			-4.587
188604.000			27.524			-4.587
188703.000			27.524			-4.587
188805.000			27.525			-4.587
188904.000			27.524			-4.587
189004.000			27.523			-4.587
189105.000			27.523			-4.587
189204.000			27.522			-4.587
189305.000			27.522			-4.587
189403.000			27.523			-4.587
189504.000			27.523			-4.587
189604.000			27.521			-4.587
189704.000			27.521			-4.587
189804.000			27.521			-4.587
189905.000			27.520			-4.587
190004.000			27.520			-4.587
190104.000			27.519			-4.586
190205.000			27.519			-4.587
190304.000			27.518			-4.586
190404.000			27.517			-4.586
190504.000			27.518			-4.586
190604.000			27.518			-4.586
190704.000			27.518			-4.586
190805.000			27.518			-4.586
190904.000			27.517			-4.586
191004.000			27.516			-4.586
191105.000			27.516			-4.586
191204.000			27.517			-4.586
191304.000			27.517			-4.586
191404.000			27.515			-4.586
191504.000			27.516			-4.586
191604.000			27.515			-4.586
191705.000			27.515			-4.586
191804.000			27.515			-4.586
191904.000			27.516			-4.586
192005.000			27.515			-4.586
192104.000			27.513			-4.586
192204.000			27.513			-4.585
192304.000			27.513			-4.585
192404.000			27.514			-4.586
192505.000			27.513			-4.585
192604.000			27.513			-4.586
192704.000			27.512			-4.585
192805.000			27.512			-4.585
192904.000			27.512			-4.585
193004.000			27.512			-4.585
193105.000			27.511			-4.585
193203.000			27.512			-4.585
193304.000			27.511			-4.585
193405.000			27.510			-4.585
193504.000			27.510			-4.585
193604.000			27.509			-4.585
193705.000			27.510			-4.585
193804.000			27.509			-4.585
193904.000			27.508			-4.585
194005.000			27.508			-4.585
194103.000			27.508			-4.585
194204.000			27.509			-4.585
194304.000			27.506			-4.584
194404.000			27.506			-4.584
194504.000			27.508			-4.585
194605.000			27.508			-4.585
194704.000			27.508			-4.585
194804.000			27.507			-4.585
194905.000			27.508			-4.585
195003.000			27.507			-4.584
195104.000			27.506			-4.584
195204.000			27.506			-4.584
195304.000			27.506			-4.584
195404.000			27.506			-4.584
195505.000			27.506			-4.584
195604.000			27.506			-4.584
195705.000			27.505			-4.584
195804.000			27.506			-4.584
195904.000			27.505			-4.584
196005.000			27.505			-4.584
196103.000			27.506			-4.584
196204.000			27.506			-4.584
196305.000			27.505			-4.584
196404.000			27.506			-4.584
196504.000			27.505			-4.584
196605.000			27.505			-4.584
196704.000			27.505			-4.584
196804.000			27.505			-4.584
196905.000			27.506			-4.584
197003.000			27.505			-4.584
197104.000			27.506			-4.584
197205.000			27.505			-4.584
197304.000			27.505			-4.584
197404.000			27.505			-4.584
197505.000			27.505			-4.584
197604.000			27.505			-4.584
197704.000			27.506			-4.584
197805.000			27.505			-4.584
197903.000			27.504			-4.584
198004.000			27.505			-4.584
198105.000			27.504			-4.584
198204.000			27.505			-4.584
198304.000			27.505			-4.584
198405.000			27.505			-4.584
198504.000			27.504			-4.584
198604.000			27.503			-4.584
198705.000			27.504			-4.584
198803.000			27.503			-4.584
198905.000			27.503			-4.584
199004.000			27.503			-4.584
199104.000			27.503			-4.584
199205.000			27.503			-4.584
199304.000			27.502			-4.584
199404.000			27.501			-4.584
199505.000			27.501			-4.584
199604.000			27.501			-4.584
199703.000			27.500			-4.583
199805.000			27.500			-4.583
199904.000			27.500			-4.583
200004.000			27.501			-4.583
200105.000			27.500			-4.583
200204.000			27.500			-4.583
200304.000			27.499			-4.583
200405.000			27.499			-4.583
200504.000			27.498			-4.583
200603.000			27.498			-4.583
200705.000			27.497			-4.583
200804.000			27.499			-4.583
200904.000			27.499			-4.583
201005.000			27.498			-4.583
201104.000			27.498			-4.583
201204.000			27.497			-4.583
201305.000			27.497			-4.583
201404.000			27.497			-4.583
201503.000			27.496			-4.583
201605.000			27.495			-4.583
201704.000			27.495			-4.582
201804.000			27.495			-4.582
201905.000			27.494			-4.582
202004.000			27.493			-4.582
202105.000			27.494			-4.582
202204.000			27.496			-4.583
202304.000			27.493			-4.582
202404.000			27.493			-4.582
202504.000			27.491			-4.582
202603.000			27.491			-4.582
202705.000			27.491			-4.582
202804.000			27.490			-4.582
202904.000			27.490			-4.582
203005.000			27.490			-4.582
203104.000			27.490			-4.582
203204.000			27.490			-4.582
203304.000			27.489			-4.582
203404.000			27.489			-4.581
203504.000			27.489			-4.581
203605.000			27.489			-4.582
203704.000			27.488			-4.581
203804.000			27.486			-4.581
203905.000			27.486			-4.581
204004.000			27.486			-4.581
204104.000			27.487			-4.581
204204.000			27.487			-4.581
204304.000			27.486			-4.581
204404.000			27.487			-4.581
204505.000			27.486			-4.581
204604.000			27.485			-4.581
204704.000			27.484			-4.581
204805.000			27.485			-4.581
204904.000			27.486			-4.581
205004.000			27.486			-4.581
205104.000			27.485			-4.581
205204.000			27.485			-4.581
205305.000			27.484			-4.581
205404.000			27.484			-4.581
205504.000			27.485			-4.581
205605.000			27.484			-4.581
205704.000			27.484			-4.581
205804.000			27.484			-4.581
205905.000			27.483			-4.581
206003.000			27.483			-4.581
206104.000			27.483			-4.580
206205.000			27.482			-4.580
206304.000			27.483			-4.580
206404.000			27.483			-4.580
206505.000			27.481			-4.580
206604.000			27.483			-4.580
206704.000			27.482			-4.580
206805.000			27.482			-4.580
206903.000			27.482			-4.580
207004.000			27.482			-4.580
207105.000			27.483			-4.580
207204.000			27.483			-4.580
207304.000			27.482			-4.580
207405.000			27.482			-4.580
207504.000			27.481			-4.580
207604.000			27.480			-4.580
207705.000			27.481			-4.580
207803.000			27.481			-4.580
207904.000			27.481			-4.580
208005.000			27.481			-4.580
208104.000			27.481			-4.580
208204.000			27.480			-4.580
208305.000			27.480			-4.580
208404.000			27.480			-4.580
208505.000			27.480			-4.580
208604.000			27.480			-4.580
208703.000			27.479			-4.580
208805.000			27.479			-4.580
208904.000			27.479			-4.580
209004.000			27.477			-4.580
209105.000			27.478			-4.580
209204.000			27.478			-4.580
209304.000			27.477			-4.580
209405.000			27.477			-4.579
209504.000			27.477			-4.579
209603.000			27.476			-4.579
209705.000			27.476			-4.579
209803.000			27.476			-4.579
209904.000			27.475			-4.579
210005.000			27.474			-4.579
210104.000			27.475			-4.579
210204.000			27.474			-4.579
210305.000			27.474			-4.579
210404.000			27.474			-4.579
210503.000			27.475			-4.579
210605.000			27.474			-4.579
210704.000			27.472			-4.579
210804.000			27.472			-4.579
210905.000			27.472			-4.579
211004.000			27.472			-4.579
211104.000			27.471			-4.578
211205.000			27.471			-4.578
211304.000			27.470			-4.578
211403.000			27.470			-4.578
211505.000			27.469			-4.578
211604.000			27.470			-4.578
211705.000			27.469			-4.578
211804.000			27.469			-4.578
211904.000			27.468			-4.578
212005.000			27.468			-4.578
212104.000			27.468			-4.578
212204.000			27.467			-4.578
212304.000			27.468			-4.578
212404.000			27.466			-4.578
212504.000			27.465			-4.578
212605.000			27.465			-4.578
212704.000			27.464			-4.577
212804.000			27.464			-4.577
212905.000			27.464			-4.577
213004.000			27.463			-4.577
213104.000			27.463			-4.577
213204.000			27.463			-4.577
213304.000			27.463			-4.577
213404.000			27.462			-4.577
213505.000			27.461			-4.577
213604.000			27.460			-4.577
213704.000			27.460			-4.577
213805.000			27.460			-4.577
213904.000			27.460			-4.577
214004.000			27.460			-4.577
214104.000			27.459			-4.576
214204.000			27.458			-4.576
214304.000			27.459			-4.576
214405.000			27.459			-4.576
214504.000			27.458			-4.576
214604.000			27.457			-4.576
214705.000			27.457			-4.576
214804.000			27.456			-4.576
214905.000			27.456			-4.576
215003.000			27.457			-4.576
215104.000			27.456			-4.576
215205.000			27.456			-4.576
215304.000			27.455			-4.576
215404.000			27.455			-4.576
215505.000			27.455			-4.576
215604.000			27.454			-4.576
215704.000			27.455			-4.576
215805.000			27.455			-4.576
215903.000			27.454			-4.576
216004.000			27.453			-4.575
216105.000			27.453			-4.575
216204.000			27.452			-4.575
216304.000			27.452			-4.575
216405.000			27.451			-4.575
216504.000			27.452			-4.575
216603.000			27.451			-4.575
216705.000			27.452			-4.575
216803.000			27.451			-4.575
216904.000			27.451			-4.575
217005.000			27.451			-4.575
217104.000			27.451			-4.575
217204.000			27.450			-4.575
217305.000			27.450			-4.575
217404.000			27.449			-4.575
217503.000			27.449			-4.575
217605.000			27.448			-4.575
217703.000			27.448			-4.575
217804.000			27.447			-4.575
217905.000			27.447			-4.575
218004.000			27.448			-4.575
218105.000			27.447			-4.575
218204.000			27.447			-4.574
218304.000			27.447			-4.575
218405.000			27.447			-4.574
218504.000			27.447			-4.575
218603.000			27.447			-4.574
218705.000			27.446			-4.574
218804.000			27.445			-4.574
218904.000			27.446			-4.574
219005.000			27.446			-4.574
219104.000			27.445			-4.574
219204.000			27.444			-4.574
219305.000			27.445			-4.574
219404.000			27.446			-4.574
219503.000			27.446			-4.574
219605.000			27.445			-4.574
219704.000			27.443			-4.574
219804.000			27.443			-4.574
219905.000			27.444			-4.574
220004.000			27.444			-4.574
220104.000			27.443			-4.574
220205.000			27.443			-4.574
220304.000			27.443			-4.574
220403.000			27.441			-4.574
220505.000			27.441			-4.574
220604.000			27.442			-4.574
220704.000			27.442			-4.574
220805.000			27.441			-4.573
220904.000			27.440			-4.573
221004.000			27.440			-4.573
221104.000			27.441			-4.574
221204.000			27.440			-4.573
221303.000			27.439			-4.573
221404.000			27.439			-4.573
221504.000			27.440			-4.573
221605.000			27.440			-4.573
221704.000			27.439			-4.573
221804.000			27.439			-4.573
221905.000			27.440			-4.573
222003.000			27.439			-4.573
222104.000			27.437			-4.573
222204.000			27.438			-4.573
222304.000			27.438			-4.573
222404.000			27.437			-4.573
222505.000			27.437			-4.573
222604.000			27.437			-4.573
222704.000			27.437			-4.573
222805.000			27.437			-4.573
222903.000			27.437			-4.573
223004.000			27.437			-4.573
223105.000			27.436			-4.573
223204.000			27.435			-4.573
223304.000			27.434			-4.572
223405.000			27.435			-4.573
223504.000			27.435			-4.572
223604.000			27.434			-4.572
223705.000			27.434			-4.572
223803.000			27.433			-4.572
223904.000			27.433			-4.572
224004.000			27.433			-4.572
224104.000			27.432			-4.572
224204.000			27.432			-4.572
224305.000			27.431			-4.572
224404.000			27.433			-4.572
224505.000			27.433			-4.572
224604.000			27.432			-4.572
224703.000			27.431			-4.572
224805.000			27.431			-4.572
224904.000			27.431			-4.572
225004.000			27.431			-4.572
225105.000			27.431			-4.572
225204.000			27.430			-4.572
225304.000			27.429			-4.572
225405.000			27.430			-4.572
225504.000			27.429			-4.572
225603.000			27.429			-4.572
225705.000			27.429			-4.571
225804.000			27.429			-4.571
225904.000			27.428			-4.571
226005.000			27.429			-4.571
226104.000			27.429			-4.571
226204.000			27.428			-4.571
226305.000			27.427			-4.571
226404.000			27.427			-4.571
226503.000			27.428			-4.571
226605.000			27.428			-4.571
226704.000			27.427			-4.571
226804.000			27.427			-4.571
226905.000			27.427			-4.571
227004.000			27.426			-4.571
227104.000			27.426			-4.571
227205.000			27.426			-4.571
227304.000			27.424			-4.571
227403.000			27.424			-4.571
227505.000			27.424			-4.571
227604.000			27.425			-4.571
227705.000			27.424			-4.571
227804.000			27.424			-4.571
227904.000			27.423			-4.571
228005.000			27.424			-4.571
228104.000			27.424			-4.571
228204.000			27.424			-4.571
228304.000			27.423			-4.571
228404.000			27.423			-4.570
228504.000			27.423			-4.570
228605.000			27.423			-4.570
228704.000			27.423			-4.570
228804.000			27.423			-4.570
228905.000			27.422			-4.570
229004.000			27.421			-4.570
229104.000			27.421			-4.570
229204.000			27.421			-4.570
229304.000			27.421			-4.570
229404.000			27.420			-4.570
229505.000			27.420			-4.570
229604.000			27.420			-4.570
229704.000			27.420			-4.570
229805.000			27.420			-4.570
229904.000			27.419			-4.570
230004.000			27.420			-4.570
230104.000			27.419			-4.570
230204.000			27.417			-4.570
230304.000			27.417			-4.570
230405.000			27.418			-4.570
230504.000			27.418			-4.570
230604.000			27.417			-4.569
230705.000			27.418			-4.570
230803.000			27.417			-4.569
230905.000			27.417			-4.569
231003.000			27.417			-4.570
231104.000			27.417			-4.570
231205.000			27.416			-4.569
231304.000			27.415			-4.569
231404.000			27.416			-4.569
231505.000			27.416			-4.569
231604.000			27.415			-4.569
231703.000			27.415			-4.569
231805.000			27.415			-4.569
231904.000			27.415			-4.569
232004.000			27.415			-4.569
232105.000			27.413			-4.569
232204.000			27.414			-4.569
232304.000			27.414			-4.569
232405.000			27.413			-4.569
232504.000			27.414			-4.569
232603.000			27.413			-4.569
232705.000			27.412			-4.569
232804.000			27.412			-4.569
232904.000			27.412			-4.569
233005.000			27.412			-4.569
233104.000			27.411			-4.569
233204.000			27.411			-4.569
233305.000			27.411			-4.568
233404.000			27.410			-4.568
233503.000			27.411			-4.569
233605.000			27.411			-4.568
233704.000			27.411			-4.569
233804.000			27.411			-4.569
233905.000			27.410			-4.568
234004.000			27.410			-4.568
234105.000			27.409			-4.568
234203.000			27.409			-4.568
234304.000			27.410			-4.568
234405.000			27.409			-4.568
234504.000			27.409			-4.568
234604.000			27.409			-4.568
234705.000			27.408			-4.568
234804.000			27.408			-4.568
234904.000			27.408			-4.568
235005.000			27.407			-4.568
235103.000			27.407			-4.568
235204.000			27.407			-4.568
235304.000			27.407			-4.568
235404.000			27.407			-4.568
235504.000			27.407			-4.568
235605.000			27.406			-4.568
235704.000			27.405			-4.567
235804.000			27.405			-4.568
235905.000			27.405			-4.568
236003.000			27.405			-4.567
236104.000			27.405			-4.568
236205.000			27.405			-4.568
236304.000			27.405			-4.567
236404.000			27.405			-4.567
236505.000			27.404			-4.567
236604.000			27.403			-4.567
236704.000			27.404			-4.567
236805.000			27.404			-4.567
236903.000			27.403			-4.567
237004.000			27.404			-4.567
237105.000			27.404			-4.567
237204.000			27.403			-4.567
237305.000			27.403			-4.567
237404.000			27.402			-4.567
237504.000			27.403			-4.567
237605.000			27.402			-4.567
237704.000			27.401			-4.567
237803.000			27.401			-4.567
237905.000			27.401			-4.567
238004.000			27.402			-4.567
238104.000			27.401			-4.567
238205.000			27.401			-4.567
238304.000			27.400			-4.567
238404.000			27.402			-4.567
238504.000			27.400			-4.567
238604.000			27.399			-4.567
238703.000			27.399			-4.566
238805.000			27.400			-4.567
238904.000			27.400			-4.567
239004.000			27.399			-4.567
239105.000			27.399			-4.566
239204.000			27.397			-4.566
239304.000			27.398			-4.566
239405.000			27.399			-4.566
239504.000			27.399			-4.566
239603.000			27.398			-4.566
239705.000			27.396			-4.566
239804.000			27.398			-4.566
239904.000			27.398			-4.566
240005.000			27.397			-4.566
240104.000			27.397			-4.566
240204.000			27.397			-4.566
240305.000			27.397			-4.566
240404.000			27.396			-4.566
240503.000			27.396			-4.566
240604.000			27.396			-4.566
240703.000			27.396			-4.566
240805.000			27.395			-4.566
240904.000			27.395			-4.566
241004.000			27.395			-4.566
241105.000			27.395			-4.566
241204.000			27.395			-4.566
241304.000			27.395			-4.566
241404.000			27.395			-4.566
241504.000			27.393			-4.566
241603.000			27.394			-4.566
241705.000			27.393			-4.565
241804.000			27.393			-4.565
241904.000			27.392			-4.565
242005.000			27.392			-4.565
242104.000			27.392			-4.565
242204.000			27.392			-4.565
242304.000			27.392			-4.565
242404.000			27.392			-4.565
242504.000			27.391			-4.565
242605.000			27.391			-4.565
242704.000			27.390			-4.565
242804.000			27.391			-4.565
242905.000			27.392			-4.565
243004.000			27.391			-4.565
243104.000			27.391			-4.565
243204.000			27.392			-4.565
243304.000			27.391			-4.565
243404.000			27.390			-4.565
243505.000			27.389			-4.565
243604.000			27.389			-4.565
243705.000			27.389			-4.565
243804.000			27.388			-4.565
243904.000			27.388			-4.565
244005.000			27.389			-4.565
244104.000			27.389			-4.565
244204.000			27.388			-4.565
244304.000			27.388			-4.565
244404.000			27.387			-4.565
244504.000			27.387			-4.564
244605.000			27.387			-4.564
244704.000			27.386			-4.564
244804.000			27.386			-4.564
244905.000			27.386			-4.564
245004.000			27.386			-4.564
245104.000			27.386			-4.564
245204.000			27.386			-4.564
245304.000			27.386			-4.564
245404.000			27.385			-4.564
245505.000			27.385			-4.564
245604.000			27.385			-4.564
245704.000			27.385			-4.564
245805.000			27.384			-4.564
245904.000			27.385			-4.564
246004.000			27.385			-4.564
246104.000			27.384			-4.564
246204.000			27.383			-4.564
246303.000			27.382			-4.564
246405.000			27.382			-4.564
246504.000			27.380			-4.563
246604.000			27.382			-4.564
246705.000			27.382			-4.564
246804.000			27.382			-4.564
246905.000			27.382			-4.564
247003.000			27.382			-4.564
247104.000			27.381			-4.564
247204.000			27.380			-4.563
247304.000			27.380			-4.563
247404.000			27.380			-4.563
247505.000			27.381			-4.564
247604.000			27.380			-4.563
247704.000			27.379			-4.563
247805.000			27.378			-4.563
247903.000			27.379			-4.563
248004.000			27.380			-4.563
248104.000			27.379			-4.563
248204.000			27.379			-4.563
248304.000			27.379			-4.563
248405.000			27.378			-4.563
248504.000			27.378			-4.563
248604.000			27.378			-4.563
248705.000			27.378			-4.563
248804.000			27.378			-4.563
248904.000			27.378			-4.563
249004.000			27.378			-4.563
249104.000			27.378			-4.563
249203.000			27.377			-4.563
249305.000			27.377			-4.563
249404.000			27.377			-4.563
249504.000			27.376			-4.563
249605.000			27.377			-4.563
249704.000			27.376			-4.563
249804.000			27.376			-4.563
249904.000			27.376			-4.563
250004.000			27.376			-4.563
250103.000			27.375			-4.562
250204.000			27.374			-4.562
250304.000			27.374			-4.562
250405.000			27.374			-4.562
250504.000			27.375			-4.562
250604.000			27.375			-4.562
250705.000			27.374			-4.562
250803.000			27.373			-4.562
250904.000			27.373			-4.562
251004.000			27.373			-4.562
251104.000			27.372			-4.562
251204.000			27.372			-4.562
251305.000			27.371			-4.562
251404.000			27.372			-4.562
251504.000			27.372			-4.562
251605.000			27.372			-4.562
251703.000			27.373			-4.562
251804.000			27.372			-4.562
251904.000			27.371			-4.562
252004.000			27.371			-4.562
252104.000			27.372			-4.562
252205.000			27.372			-4.562
252304.000			27.371			-4.562
252404.000			27.370			-4.562
252505.000			27.369			-4.562
252603.000			27.370			-4.562
252704.000			27.370			-4.562
252805.000			27.371			-4.562
252904.000			27.371			-4.562
253004.000			27.369			-4.562
253105.000			27.369			-4.562
253204.000			27.369			-4.562
253305.000			27.369			-4.562
253404.000			27.369			-4.561
253503.000			27.368			-4.561
253605.000			27.369			-4.562
253704.000			27.369			-4.561
253804.000			27.369			-4.561
253905.000			27.366			-4.561
254004.000			27.366			-4.561
254104.000			27.367			-4.561
254205.000			27.367			-4.561
254304.000			27.367			-4.561
254403.000			27.365			-4.561
254505.000			27.366			-4.561
254603.000			27.366			-4.561
254704.000			27.365			-4.561
254805.000			27.364			-4.561
254904.000			27.365			-4.561
255004.000			27.366			-4.561
255105.000			27.366			-4.561
255204.000			27.366			-4.561
255304.000			27.363			-4.561
255405.000			27.363			-4.561
255503.000			27.364			-4.561
255604.000			27.364			-4.561
255705.000			27.364			-4.561
255804.000			27.364			-4.561
255904.000			27.364			-4.561
256005.000			27.364			-4.561
256104.000			27.363			-4.560
256204.000			27.362			-4.560
256305.000			27.362			-4.560
256403.000			27.362			-4.560
256505.000			27.361			-4.560
256604.000			27.362			-4.560
256704.000			27.362			-4.560
256805.000			27.361			-4.560
256904.000			27.361			-4.560
257004.000			27.361			-4.560
257105.000			27.361			-4.560
257204.000			27.361			-4.560
257303.000			27.360			-4.560
257405.000			27.360			-4.560
257504.000			27.359			-4.560
257604.000			27.358			-4.560
257705.000			27.359			-4.560
257804.000			27.359			-4.560
257904.000			27.360			-4.560
258005.000			27.360			-4.560
258104.000			27.360			-4.560
258203.000			27.360			-4.560
258305.000			27.360			-4.560
258404.000			27.359			-4.560
258504.000			27.358			-4.560
258605.000			27.358			-4.560
258704.000			27.358			-4.560
258804.000			27.358			-4.560
258905.000			27.357			-4.560
259004.000			27.357			-4.559
259103.000			27.357			-4.560
259205.000			27.356			-4.559
259303.000			27.356			-4.559
259404.000			27.356			-4.559
259505.000			27.355			-4.559
259604.000			27.356			-4.559
259705.000			27.356			-4.559
259804.000			27.357			-4.560
259904.000			27.356			-4.559
260005.000			27.356			-4.559
260104.000			27.356			-4.559
260203.000			27.356			-4.559
260305.000			27.354			-4.559
260404.000			27.355			-4.559
260504.000			27.355			-4.559
260605.000			27.354			-4.559
260704.000			27.354			-4.559
260804.000			27.354			-4.559
260905.000			27.354			-4.559
261004.000			27.354			-4.559
261103.000			27.353			-4.559
261205.000			27.353			-4.559
261304.000			27.352			-4.559
261404.000			27.352			-4.559
261505.000			27.353			-4.559
261604.000			27.353			-4.559
261704.000			27.353			-4.559
261805.000			27.350			-4.558
261904.000			27.350			-4.558
262003.000			27.352			-4.559
262105.000			27.352			-4.559
262204.000			27.351			-4.558
262304.000			27.351			-4.558
262405.000			27.350			-4.558
262504.000			27.349			-4.558
262604.000			27.350			-4.558
262705.000			27.350			-4.558
262804.000			27.350			-4.558
262903.000			27.349			-4.558
263004.000			27.350			-4.558
263104.000			27.349			-4.558
263205.000			27.349			-4.558
263304.000			27.348			-4.558
263404.000			27.348			-4.558
263505.000			27.347			-4.558
263604.000			27.347			-4.558
263704.000			27.347			-4.558
263804.000			27.347			-4.558
263904.000			27.346			-4.558
264004.000			27.346			-4.558
264105.000			27.346			-4.558
264204.000			27.346			-4.558
264304.000			27.345			-4.558
264405.000			27.345			-4.558
264504.000			27.345			-4.558
264604.000			27.346			-4.558
264704.000			27.345			-4.558
264804.000			27.345			-4.557
264903.000			27.344			-4.557
265005.000			27.344			-4.557
265104.000			27.345			-4.557
265204.000			27.344			-4.557
265305.000			27.344			-4.557
265404.000			27.344			-4.557
265504.000			27.342			-4.557
265604.000			27.342			-4.557
265704.000			27.341			-4.557
265804.000			27.341			-4.557
265905.000			27.342			-4.557
266004.000			27.342			-4.557
266105.000			27.342			-4.557
266204.000			27.343			-4.557
266304.000			27.342			-4.557
266405.000			27.342			-4.557
266503.000			27.342			-4.557
266604.000			27.341			-4.557
266705.000			27.341			-4.557
266804.000			27.341			-4.557
266904.000			27.341			-4.557
267005.000			27.340			-4.557
267104.000			27.341			-4.557
267204.000			27.341			-4.557
267305.000			27.341			-4.557
267403.000			27.339			-4.557
267504.000			27.339			-4.557
267605.000			27.339			-4.556
267704.000			27.339			-4.557
267804.000			27.340			-4.557
267905.000			27.339			-4.557
268004.000			27.339			-4.556
268104.000			27.338			-4.556
268205.000			27.337			-4.556
268303.000			27.337			-4.556
268404.000			27.338			-4.556
268505.000			27.338			-4.556
268604.000			27.338			-4.556
268704.000			27.337			-4.556
268805.000			27.336			-4.556
268904.000			27.336			-4.556
269004.000			27.336			-4.556
269105.000			27.335			-4.556
269203.000			27.337			-4.556
269305.000			27.337			-4.556
269404.000			27.337			-4.556
269504.000			27.337			-4.556
269605.000			27.336			-4.556
269704.000			27.337			-4.556
269804.000			27.335			-4.556
269905.000			27.335			-4.556
270004.000			27.335			-4.556
270103.000			27.334			-4.556
270205.000			27.335			-4.556
270304.000			27.335			-4.556
270404.000			27.334			-4.556
270505.000			27.333			-4.556
270604.000			27.334			-4.556
270704.000			27.334			-4.556
270805.000			27.334			-4.556
270904.000			27.334			-4.556
271003.000			27.333			-4.555
271105.000			27.333			-4.555
271204.000			27.333			-4.556
271304.000			27.331			-4.555
271405.000			27.332			-4.555
271504.000			27.331			-4.555
271604.000			27.331			-4.555
271704.000			27.331			-4.555
271804.000			27.332			-4.555
271903.000			27.331			-4.555
272005.000			27.331			-4.555
272104.000			27.331			-4.555
272204.000			27.330			-4.555
272305.000			27.330			-4.555
272404.000			27.330			-4.555
272505.000			27.329			-4.555
272603.000			27.328			-4.555
272704.000			27.329			-4.555
272804.000			27.330			-4.555
272904.000			27.329			-4.555
273004.000			27.329			-4.555
273105.000			27.329			-4.555
273204.000			27.329			-4.555
273304.000			27.328			-4.555
273405.000			27.328			-4.555
273503.000			27.328			-4.555
273604.000			27.328			-4.555
273704.000			27.328			-4.555
273804.000			27.328			-4.555
273904.000			27.327			-4.555
274005.000			27.327			-4.554
274104.000			27.327			-4.554
274204.000			27.327			-4.555
274305.000			27.326			-4.554
274403.000			27.325			-4.554
274504.000			27.326			-4.554
274604.000			27.325			-4.554
274704.000			27.325			-4.554
274804.000			27.325			-4.554
274905.000			27.326			-4.554
275004.000			27.326			-4.554
275104.000			27.325			-4.554
275205.000			27.325			-4.554
275303.000			27.325			-4.554
275404.000			27.324			-4.554
275504.000			27.324			-4.554
275604.000			27.323			-4.554
275705.000			27.324			-4.554
275804.000			27.323			-4.554
275904.000			27.323			-4.554
276005.000			27.323			-4.554
276104.000			27.322			-4.554
276203.000			27.322			-4.554
276305.000			27.322			-4.554
276403.000			27.322			-4.554
276504.000			27.321			-4.553
276605.000			27.321			-4.553
276704.000			27.321			-4.553
276804.000			27.321			-4.554
276905.000			27.321			-4.554
277004.000			27.320			-4.553
277103.000			27.321			-4.553
277205.000			27.320			-4.553
277304.000			27.320			-4.553
277404.000			27.320			-4.553
277505.000			27.320			-4.553
277604.000			27.320			-4.553
277704.000			27.319			-4.553
277805.000			27.319			-4.553
277904.000			27.319			-4.553
278003.000			27.319			-4.553
278105.000			27.319			-4.553
278204.000			27.319			-4.553
278304.000			27.319			-4.553
278405.000			27.319			-4.553
278504.000			27.318			-4.553
278604.000			27.318			-4.553
278705.000			27.318			-4.553
278804.000			27.318			-4.553
278903.000			27.318			-4.553
279004.000			27.317			-4.553
279103.000			27.316			-4.553
279205.000			27.316			-4.553
279304.000			27.317			-4.553
279404.000			27.316			-4.553
279505.000			27.316			-4.553
279604.000			27.317			-4.553
279704.000			27.316			-4.553
279804.000			27.314			-4.552
279904.000			27.315			-4.553
280003.000			27.316			-4.553
280105.000			27.314			-4.552
280204.000			27.315			-4.552
280304.000			27.315			-4.552
280405.000			27.314			-4.552
280504.000			27.315			-4.552
280604.000			27.314			-4.552
280704.000			27.315			-4.552
280804.000			27.314			-4.552
280903.000			27.314			-4.552
281005.000			27.314			-4.552
281104.000			27.314			-4.552
281204.000			27.314			-4.552
281305.000			27.314			-4.552
281404.000			27.313			-4.552
281504.000			27.311			-4.552
281604.000			27.311			-4.552
281704.000			27.312			-4.552
281804.000			27.311			-4.552
281905.000			27.311			-4.552
282004.000			27.312			-4.552
282105.000			27.311			-4.552
282204.000			27.311			-4.552
282303.000			27.310			-4.552
282405.000			27.311			-4.552
282503.000			27.310			-4.552
282604.000			27.309			-4.552
282705.000			27.309			-4.552
282804.000			27.310			-4.552
282904.000			27.311			-4.552
283005.000			27.310			-4.552
283104.000			27.310			-4.552
283203.000			27.311			-4.552
283305.000			27.309			-4.552
283404.000			27.309			-4.551
283504.000			27.310			-4.552
283605.000			27.309			-4.551
283704.000			27.308			-4.551
283804.000			27.308			-4.551
283905.000			27.309			-4.551
284004.000			27.310			-4.552
284103.000			27.308			-4.551
284205.000			27.307			-4.551
284304.000			27.308			-4.551
284404.000			27.307			-4.551
284505.000			27.308			-4.551
284604.000			27.308			-4.551
284704.000			27.307			-4.551
284805.000			27.307			-4.551
284904.000			27.307			-4.551
285003.000			27.307			-4.551
285105.000			27.306			-4.551
285204.000			27.306			-4.551
285305.000			27.306			-4.551
285404.000			27.305			-4.551
285504.000			27.305			-4.551
285605.000			27.304			-4.551
285704.000			27.304			-4.551
285804.000			27.305			-4.551
285904.000			27.305			-4.551
286004.000			27.304			-4.551
286104.000			27.303			-4.551
286205.000			27.304			-4.551
286304.000			27.304			-4.551
286404.000			27.304			-4.551
286505.000			27.304			-4.551
286604.000			27.303			-4.551
286704.000			27.303			-4.551
286804.000			27.302			-4.550
286904.000			27.303			-4.550
287004.000			27.303			-4.551
287105.000			27.303			-4.550
287204.000			27.302			-4.550
287304.000			27.302			-4.550
287405.000			27.301			-4.550
287504.000			27.302			-4.550
287604.000			27.302			-4.550
287704.000			27.302			-4.550
287804.000			27.302			-4.550
287904.000			27.302			-4.550
288005.000			27.301			-4.550
288104.000			27.301			-4.550
288204.000			27.300			-4.550
288305.000			27.300			-4.550
288404.000			27.301			-4.550
288505.000			27.300			-4.550
288603.000			27.300			-4.550
288704.000			27.300			-4.550
288805.000			27.299			-4.550
288904.000			27.299			-4.550
289004.000			27.300			-4.550
289105.000			27.299			-4.550
289204.000			27.299			-4.550
289304.000			27.299			-4.550
289405.000			27.298			-4.550
289504.000			27.297			-4.550
289604.000			27.297			-4.550
289704.000			27.298			-4.550
289804.000			27.298			-4.550
289904.000			27.298			-4.550
290005.000			27.296			-4.549
290104.000			27.296			-4.549
290204.000			27.297			-4.550
290305.000			27.297			-4.549
290404.000			27.296			-4.549
290504.000			27.296			-4.549
290604.000			27.296			-4.549
290704.000			27.296			-4.549
290804.000			27.296			-4.549
290905.000			27.295			-4.549
291004.000			27.295			-4.549
291104.000			27.297			-4.549
291205.000			27.295			-4.549
291304.000			27.295			-4.549
291404.000			27.295			-4.549
291504.000			27.294			-4.549
291604.000			27.295			-4.549
291705.000			27.295			-4.549
291804.000			27.295			-4.549
291904.000			27.294			-4.549
292005.000			27.294			-4.549
292104.000			27.294			-4.549
292204.000			27.294			-4.549
292305.000			27.294			-4.549
292403.000			27.293			-4.549
292504.000			27.292			-4.549
292604.000			27.293			-4.549
292704.000			27.294			-4.549
292804.000			27.293			-4.549
292905.000			27.293			-4.549
293004.000			27.292			-4.549
293104.000			27.291			-4.549
293205.000			27.292			-4.549
293303.000			27.292			-4.549
293404.000			27.293			-4.549
293504.000			27.293			-4.549
293604.000			27.292			-4.549
293704.000			27.291			-4.548
293805.000			27.291			-4.549
293904.000			27.291			-4.549
294004.000			27.291			-4.548
294105.000			27.290			-4.548
294204.000			27.290			-4.548
294304.000			27.290			-4.548
294404.000			27.290			-4.548
294504.000			27.290			-4.548
294604.000			27.290			-4.548
294705.000			27.289			-4.548
294804.000			27.289			-4.548
294905.000			27.289			-4.548
295004.000			27.288			-4.548
295104.000			27.289			-4.548
295205.000			27.289			-4.548
295303.000			27.288			-4.548
295404.000			27.289			-4.548
295505.000			27.289			-4.548
295604.000			27.288			-4.548
295704.000			27.289			-4.548
295805.000			27.288			-4.548
295904.000			27.288			-4.548
296004.000			27.287			-4.548
296105.000			27.287			-4.548
296204.000			27.287			-4.548
296304.000			27.287			-4.548
296404.000			27.286			-4.548
296504.000			27.286			-4.548
296604.000			27.286			-4.548
296705.000			27.286			-4.548
296804.000			27.285			-4.547
296904.000			27.284			-4.547
297005.000			27.285			-4.547
297104.000			27.285			-4.548
297204.000			27.285			-4.547
297304.000			27.284			-4.547
297404.000			27.285			-4.547
297503.000			27.285			-4.547
297605.000			27.284			-4.547
297704.000			27.283			-4.547
297804.000			27.283			-4.547
297905.000			27.284			-4.547
298004.000			27.284			-4.547
298105.000			27.283			-4.547
298204.000			27.283			-4.547
298304.000			27.284			-4.547
298404.000			27.283			-4.547
298504.000			27.282			-4.547
298604.000			27.281			-4.547
298705.000			27.281			-4.547
298804.000			27.282			-4.547
298904.000			27.282			-4.547
299005.000			27.282			-4.547
299104.000			27.282			-4.547
299204.000			27.280			-4.547
299304.000			27.280			-4.547
299404.000			27.281			-4.547
299503.000			27.281			-4.547
299605.000			27.281			-4.547
299704.000			27.280			-4.547
299804.000			27.280			-4.547
299905.000			27.281			-4.547
