# Acquired on 26/01/2024 16:15:19 
# SPIDER: Creep_-6mm_HM077x145x38AA-2
# CREEP MEASUREMENT

# time [ms]		force [N]		stiffness [N/mm]
1.000			29.359			-4.893
105.000			30.115			-5.019
203.000			30.307			-5.051
304.000			30.248			-5.041
405.000			30.118			-5.020
504.000			30.071			-5.012
604.000			30.029			-5.005
704.000			29.992			-4.999
804.000			29.958			-4.993
904.000			29.927			-4.988
1005.000			29.899			-4.983
1104.000			29.873			-4.979
1203.000			29.824			-4.971
1305.000			29.802			-4.967
1404.000			29.780			-4.963
1505.000			29.760			-4.960
1604.000			29.742			-4.957
1704.000			29.724			-4.954
1805.000			29.707			-4.951
1903.000			29.674			-4.946
2004.000			29.660			-4.943
2105.000			29.645			-4.941
2204.000			29.631			-4.938
2304.000			29.617			-4.936
2405.000			29.604			-4.934
2504.000			29.592			-4.932
2603.000			29.568			-4.928
2705.000			29.556			-4.926
2804.000			29.544			-4.924
2904.000			29.533			-4.922
3005.000			29.523			-4.921
3104.000			29.513			-4.919
3204.000			29.504			-4.917
3304.000			29.482			-4.914
3404.000			29.473			-4.912
3504.000			29.463			-4.911
3605.000			29.455			-4.909
3704.000			29.445			-4.908
3803.000			29.437			-4.906
3905.000			29.429			-4.905
4004.000			29.419			-4.903
4104.000			29.403			-4.901
4205.000			29.395			-4.899
4304.000			29.387			-4.898
4404.000			29.380			-4.897
4503.000			29.372			-4.895
4604.000			29.365			-4.894
4705.000			29.358			-4.893
4804.000			29.343			-4.890
4904.000			29.337			-4.889
5005.000			29.330			-4.888
5104.000			29.323			-4.887
5203.000			29.316			-4.886
5305.000			29.310			-4.885
5404.000			29.303			-4.884
5504.000			29.290			-4.882
5605.000			29.285			-4.881
5703.000			29.279			-4.880
5804.000			29.273			-4.879
5905.000			29.267			-4.878
6004.000			29.261			-4.877
6104.000			29.256			-4.876
6205.000			29.250			-4.875
6304.000			29.239			-4.873
6403.000			29.233			-4.872
6505.000			29.227			-4.871
6604.000			29.223			-4.870
6704.000			29.217			-4.870
6805.000			29.211			-4.869
6904.000			29.207			-4.868
7004.000			29.198			-4.866
7104.000			29.193			-4.865
7204.000			29.189			-4.865
7304.000			29.184			-4.864
7405.000			29.179			-4.863
7504.000			29.175			-4.862
7603.000			29.170			-4.862
7705.000			29.160			-4.860
7804.000			29.157			-4.859
7905.000			29.152			-4.859
8004.000			29.147			-4.858
8104.000			29.143			-4.857
8205.000			29.139			-4.856
8303.000			29.134			-4.856
8404.000			29.127			-4.854
8505.000			29.122			-4.854
8604.000			29.117			-4.853
8704.000			29.113			-4.852
8805.000			29.108			-4.851
8904.000			29.105			-4.851
9003.000			29.101			-4.850
9105.000			29.096			-4.849
9204.000			29.089			-4.848
9304.000			29.085			-4.848
9405.000			29.080			-4.847
9504.000			29.076			-4.846
9604.000			29.072			-4.845
9704.000			29.068			-4.845
9804.000			29.065			-4.844
9904.000			29.058			-4.843
10005.000			29.054			-4.842
10104.000			29.050			-4.842
10203.000			29.048			-4.841
10305.000			29.044			-4.841
10404.000			29.040			-4.840
10504.000			29.037			-4.839
10605.000			29.029			-4.838
10704.000			29.025			-4.838
10804.000			29.023			-4.837
10903.000			29.020			-4.837
11004.000			29.015			-4.836
11105.000			29.012			-4.835
11204.000			29.010			-4.835
11304.000			29.003			-4.834
11405.000			29.000			-4.833
11504.000			28.997			-4.833
11603.000			28.993			-4.832
11705.000			28.990			-4.832
11804.000			28.986			-4.831
11904.000			28.984			-4.831
12005.000			28.981			-4.830
12104.000			28.974			-4.829
12204.000			28.972			-4.829
12304.000			28.969			-4.828
12404.000			28.966			-4.828
12504.000			28.962			-4.827
12605.000			28.960			-4.827
12704.000			28.957			-4.826
12804.000			28.951			-4.825
12905.000			28.948			-4.825
13003.000			28.944			-4.824
13104.000			28.942			-4.824
13205.000			28.941			-4.824
13304.000			28.938			-4.823
13404.000			28.935			-4.823
13505.000			28.928			-4.821
13604.000			28.926			-4.821
13703.000			28.924			-4.821
13805.000			28.921			-4.820
13904.000			28.918			-4.820
14004.000			28.915			-4.819
14105.000			28.912			-4.819
14204.000			28.909			-4.818
14305.000			28.904			-4.817
14403.000			28.900			-4.817
14504.000			28.898			-4.816
14605.000			28.897			-4.816
14704.000			28.895			-4.816
14804.000			28.892			-4.815
14905.000			28.889			-4.815
15004.000			28.883			-4.814
15103.000			28.881			-4.813
15205.000			28.879			-4.813
15304.000			28.877			-4.813
15404.000			28.874			-4.812
15505.000			28.872			-4.812
15604.000			28.869			-4.811
15704.000			28.864			-4.811
15804.000			28.862			-4.810
15904.000			28.860			-4.810
16004.000			28.856			-4.809
16105.000			28.854			-4.809
16204.000			28.852			-4.809
16304.000			28.851			-4.808
16405.000			28.846			-4.808
16503.000			28.843			-4.807
16604.000			28.841			-4.807
16705.000			28.839			-4.806
16804.000			28.836			-4.806
16904.000			28.835			-4.806
17005.000			28.834			-4.806
17104.000			28.831			-4.805
17203.000			28.825			-4.804
17305.000			28.823			-4.804
17404.000			28.821			-4.803
17505.000			28.819			-4.803
17604.000			28.816			-4.803
17704.000			28.815			-4.802
17805.000			28.813			-4.802
17903.000			28.809			-4.802
18004.000			28.807			-4.801
18105.000			28.804			-4.801
18204.000			28.803			-4.800
18304.000			28.801			-4.800
18404.000			28.798			-4.800
18504.000			28.796			-4.799
18603.000			28.793			-4.799
18705.000			28.790			-4.798
18804.000			28.788			-4.798
18904.000			28.787			-4.798
19005.000			28.784			-4.797
19104.000			28.781			-4.797
19204.000			28.780			-4.797
19304.000			28.778			-4.796
19404.000			28.774			-4.796
19504.000			28.772			-4.795
19605.000			28.769			-4.795
19704.000			28.768			-4.795
19804.000			28.767			-4.794
19905.000			28.765			-4.794
20003.000			28.761			-4.793
20104.000			28.760			-4.793
20205.000			28.758			-4.793
20304.000			28.755			-4.793
20404.000			28.753			-4.792
20504.000			28.750			-4.792
20604.000			28.749			-4.792
20703.000			28.748			-4.791
20804.000			28.744			-4.791
20904.000			28.743			-4.790
21005.000			28.741			-4.790
21104.000			28.740			-4.790
21204.000			28.737			-4.790
21305.000			28.735			-4.789
21403.000			28.734			-4.789
21504.000			28.729			-4.788
21605.000			28.728			-4.788
21704.000			28.727			-4.788
21804.000			28.724			-4.787
21904.000			28.723			-4.787
22004.000			28.722			-4.787
22104.000			28.720			-4.787
22205.000			28.718			-4.786
22304.000			28.715			-4.786
22404.000			28.713			-4.786
22505.000			28.712			-4.785
22603.000			28.711			-4.785
22704.000			28.708			-4.785
22805.000			28.707			-4.784
22904.000			28.705			-4.784
23004.000			28.701			-4.784
23105.000			28.700			-4.783
23204.000			28.698			-4.783
23303.000			28.698			-4.783
23405.000			28.696			-4.783
23504.000			28.693			-4.782
23604.000			28.691			-4.782
23705.000			28.688			-4.781
23804.000			28.686			-4.781
23905.000			28.685			-4.781
24003.000			28.683			-4.781
24104.000			28.682			-4.780
24205.000			28.681			-4.780
24304.000			28.679			-4.780
24404.000			28.677			-4.779
24505.000			28.674			-4.779
24604.000			28.672			-4.779
24703.000			28.670			-4.778
24805.000			28.669			-4.778
24904.000			28.666			-4.778
25004.000			28.665			-4.778
25105.000			28.664			-4.777
25204.000			28.660			-4.777
25304.000			28.659			-4.776
25404.000			28.657			-4.776
25504.000			28.655			-4.776
25604.000			28.654			-4.776
25705.000			28.652			-4.775
25804.000			28.651			-4.775
25904.000			28.648			-4.775
26005.000			28.646			-4.774
26103.000			28.644			-4.774
26204.000			28.642			-4.774
26305.000			28.641			-4.774
26404.000			28.640			-4.773
26504.000			28.639			-4.773
26605.000			28.636			-4.773
26704.000			28.635			-4.772
26803.000			28.634			-4.772
26905.000			28.633			-4.772
27004.000			28.630			-4.772
27105.000			28.628			-4.771
27204.000			28.627			-4.771
27304.000			28.625			-4.771
27405.000			28.622			-4.770
27503.000			28.621			-4.770
27604.000			28.621			-4.770
27705.000			28.618			-4.770
27804.000			28.617			-4.770
27904.000			28.616			-4.769
28005.000			28.614			-4.769
28104.000			28.612			-4.769
28203.000			28.611			-4.768
28305.000			28.609			-4.768
28404.000			28.608			-4.768
28504.000			28.606			-4.768
28605.000			28.604			-4.767
28704.000			28.603			-4.767
28804.000			28.601			-4.767
28904.000			28.599			-4.766
29004.000			28.597			-4.766
29104.000			28.595			-4.766
29205.000			28.595			-4.766
29304.000			28.593			-4.766
29404.000			28.591			-4.765
29505.000			28.591			-4.765
29603.000			28.589			-4.765
29704.000			28.587			-4.764
29805.000			28.586			-4.764
29904.000			28.584			-4.764
30004.000			28.582			-4.764
30104.000			28.582			-4.764
30204.000			28.581			-4.764
30303.000			28.578			-4.763
30404.000			28.576			-4.763
30504.000			28.574			-4.762
30605.000			28.572			-4.762
30704.000			28.571			-4.762
30804.000			28.570			-4.762
30905.000			28.571			-4.762
31003.000			28.568			-4.761
31104.000			28.567			-4.761
31205.000			28.566			-4.761
31304.000			28.564			-4.761
31404.000			28.564			-4.761
31505.000			28.562			-4.760
31604.000			28.560			-4.760
31703.000			28.558			-4.760
31805.000			28.556			-4.759
31904.000			28.555			-4.759
32004.000			28.554			-4.759
32105.000			28.552			-4.759
32204.000			28.551			-4.759
32304.000			28.550			-4.758
32405.000			28.549			-4.758
32504.000			28.546			-4.758
32604.000			28.545			-4.758
32705.000			28.544			-4.757
32804.000			28.542			-4.757
32903.000			28.541			-4.757
33005.000			28.540			-4.757
33104.000			28.539			-4.757
33204.000			28.537			-4.756
33305.000			28.536			-4.756
33404.000			28.534			-4.756
33505.000			28.532			-4.755
33603.000			28.531			-4.755
33704.000			28.530			-4.755
33805.000			28.530			-4.755
33904.000			28.526			-4.754
34004.000			28.525			-4.754
34105.000			28.524			-4.754
34204.000			28.523			-4.754
34303.000			28.522			-4.754
34405.000			28.522			-4.754
34504.000			28.521			-4.753
34604.000			28.517			-4.753
34705.000			28.517			-4.753
34804.000			28.515			-4.753
34904.000			28.514			-4.752
35004.000			28.513			-4.752
35104.000			28.512			-4.752
35204.000			28.511			-4.752
35305.000			28.510			-4.752
35404.000			28.507			-4.751
35503.000			28.506			-4.751
35605.000			28.506			-4.751
35704.000			28.505			-4.751
35804.000			28.504			-4.751
35905.000			28.502			-4.750
36004.000			28.501			-4.750
36104.000			28.498			-4.750
36204.000			28.497			-4.749
36304.000			28.497			-4.750
36404.000			28.496			-4.749
36504.000			28.494			-4.749
36604.000			28.493			-4.749
36705.000			28.492			-4.749
36804.000			28.489			-4.748
36903.000			28.488			-4.748
37005.000			28.487			-4.748
37103.000			28.486			-4.748
37204.000			28.486			-4.748
37305.000			28.483			-4.747
37404.000			28.483			-4.747
37504.000			28.483			-4.747
37605.000			28.480			-4.747
37704.000			28.479			-4.746
37803.000			28.478			-4.746
37905.000			28.477			-4.746
38004.000			28.476			-4.746
38104.000			28.474			-4.746
38205.000			28.473			-4.745
38304.000			28.470			-4.745
38404.000			28.469			-4.745
38504.000			28.469			-4.745
38604.000			28.468			-4.745
38704.000			28.467			-4.744
38805.000			28.466			-4.744
38904.000			28.465			-4.744
39004.000			28.464			-4.744
39105.000			28.462			-4.744
39203.000			28.460			-4.743
39304.000			28.459			-4.743
39405.000			28.458			-4.743
39504.000			28.457			-4.743
39604.000			28.456			-4.743
39704.000			28.455			-4.743
39804.000			28.453			-4.742
39903.000			28.453			-4.742
40004.000			28.452			-4.742
40104.000			28.451			-4.742
40205.000			28.450			-4.742
40304.000			28.449			-4.742
40404.000			28.449			-4.741
40505.000			28.446			-4.741
40603.000			28.445			-4.741
40704.000			28.444			-4.741
40805.000			28.442			-4.740
40904.000			28.441			-4.740
41004.000			28.440			-4.740
41104.000			28.439			-4.740
41204.000			28.437			-4.739
41303.000			28.436			-4.739
41405.000			28.436			-4.739
41504.000			28.435			-4.739
41604.000			28.434			-4.739
41705.000			28.433			-4.739
41803.000			28.432			-4.739
41904.000			28.431			-4.738
42005.000			28.429			-4.738
42104.000			28.428			-4.738
42204.000			28.427			-4.738
42305.000			28.426			-4.738
42404.000			28.425			-4.738
42503.000			28.425			-4.737
42605.000			28.423			-4.737
42704.000			28.421			-4.737
42804.000			28.419			-4.736
42905.000			28.419			-4.736
43004.000			28.419			-4.736
43105.000			28.418			-4.736
43203.000			28.416			-4.736
43304.000			28.415			-4.736
43405.000			28.413			-4.735
43504.000			28.413			-4.735
43604.000			28.412			-4.735
43705.000			28.410			-4.735
43804.000			28.409			-4.735
43903.000			28.409			-4.735
44005.000			28.408			-4.735
44104.000			28.405			-4.734
44204.000			28.406			-4.734
44305.000			28.406			-4.734
44404.000			28.404			-4.734
44504.000			28.402			-4.734
44604.000			28.402			-4.734
44704.000			28.400			-4.733
44804.000			28.400			-4.733
44905.000			28.399			-4.733
45004.000			28.400			-4.733
45104.000			28.400			-4.733
45205.000			28.397			-4.733
45303.000			28.396			-4.733
45404.000			28.396			-4.733
45505.000			28.394			-4.732
45604.000			28.392			-4.732
45704.000			28.391			-4.732
45805.000			28.390			-4.732
45904.000			28.388			-4.731
46003.000			28.387			-4.731
46105.000			28.387			-4.731
46204.000			28.387			-4.731
46305.000			28.384			-4.731
46404.000			28.383			-4.731
46504.000			28.382			-4.730
46605.000			28.382			-4.730
46703.000			28.381			-4.730
46804.000			28.380			-4.730
46905.000			28.380			-4.730
47004.000			28.378			-4.730
47104.000			28.378			-4.730
47205.000			28.376			-4.729
47304.000			28.374			-4.729
47403.000			28.374			-4.729
47505.000			28.373			-4.729
47604.000			28.371			-4.729
47704.000			28.370			-4.728
47805.000			28.369			-4.728
47904.000			28.369			-4.728
48004.000			28.368			-4.728
48104.000			28.367			-4.728
48204.000			28.366			-4.728
48304.000			28.365			-4.728
48405.000			28.364			-4.727
48504.000			28.363			-4.727
48604.000			28.363			-4.727
48705.000			28.362			-4.727
48803.000			28.361			-4.727
48904.000			28.359			-4.727
49005.000			28.358			-4.726
49104.000			28.358			-4.726
49204.000			28.356			-4.726
49304.000			28.356			-4.726
49404.000			28.354			-4.726
49503.000			28.352			-4.725
49604.000			28.352			-4.725
49704.000			28.351			-4.725
49805.000			28.350			-4.725
49904.000			28.350			-4.725
50004.000			28.348			-4.725
50105.000			28.346			-4.724
50203.000			28.346			-4.724
50304.000			28.346			-4.724
50405.000			28.346			-4.724
50504.000			28.345			-4.724
50604.000			28.342			-4.724
50704.000			28.342			-4.724
50804.000			28.342			-4.724
50903.000			28.341			-4.723
51005.000			28.339			-4.723
51104.000			28.338			-4.723
51204.000			28.338			-4.723
51305.000			28.337			-4.723
51403.000			28.335			-4.722
51504.000			28.334			-4.722
51605.000			28.333			-4.722
51704.000			28.332			-4.722
51804.000			28.331			-4.722
51905.000			28.331			-4.722
52004.000			28.331			-4.722
52103.000			28.328			-4.721
52205.000			28.328			-4.721
52304.000			28.327			-4.721
52404.000			28.325			-4.721
52505.000			28.325			-4.721
52604.000			28.324			-4.721
52705.000			28.324			-4.721
52803.000			28.323			-4.720
52904.000			28.322			-4.720
53005.000			28.321			-4.720
53104.000			28.320			-4.720
53204.000			28.320			-4.720
53305.000			28.318			-4.720
53404.000			28.317			-4.720
53503.000			28.318			-4.720
53605.000			28.315			-4.719
53704.000			28.315			-4.719
53804.000			28.314			-4.719
53905.000			28.312			-4.719
54003.000			28.313			-4.719
54104.000			28.312			-4.719
54205.000			28.311			-4.718
54304.000			28.311			-4.719
54404.000			28.310			-4.718
54505.000			28.309			-4.718
54604.000			28.307			-4.718
54703.000			28.307			-4.718
54805.000			28.306			-4.718
54904.000			28.305			-4.718
55004.000			28.306			-4.718
55105.000			28.304			-4.717
55204.000			28.303			-4.717
55304.000			28.303			-4.717
55404.000			28.302			-4.717
55504.000			28.301			-4.717
55604.000			28.300			-4.717
55704.000			28.297			-4.716
55804.000			28.297			-4.716
55905.000			28.298			-4.716
56004.000			28.298			-4.716
56103.000			28.295			-4.716
56205.000			28.293			-4.716
56304.000			28.293			-4.715
56404.000			28.293			-4.716
56505.000			28.291			-4.715
56604.000			28.291			-4.715
56704.000			28.289			-4.715
56804.000			28.289			-4.715
56904.000			28.288			-4.715
57004.000			28.288			-4.715
57105.000			28.287			-4.715
57204.000			28.287			-4.714
57304.000			28.286			-4.714
57405.000			28.284			-4.714
57503.000			28.282			-4.714
57604.000			28.281			-4.714
57705.000			28.281			-4.714
57804.000			28.282			-4.714
57904.000			28.280			-4.713
58005.000			28.278			-4.713
58104.000			28.278			-4.713
58203.000			28.277			-4.713
58305.000			28.277			-4.713
58403.000			28.276			-4.713
58504.000			28.275			-4.712
58605.000			28.273			-4.712
58704.000			28.272			-4.712
58804.000			28.273			-4.712
58904.000			28.273			-4.712
59004.000			28.273			-4.712
59103.000			28.271			-4.712
59204.000			28.269			-4.712
59304.000			28.269			-4.712
59405.000			28.267			-4.711
59504.000			28.266			-4.711
59604.000			28.266			-4.711
59705.000			28.266			-4.711
59803.000			28.264			-4.711
59904.000			28.264			-4.711
60005.000			28.264			-4.711
60104.000			28.262			-4.710
60204.000			28.261			-4.710
60305.000			28.260			-4.710
60404.000			28.260			-4.710
60503.000			28.260			-4.710
60605.000			28.258			-4.710
60704.000			28.258			-4.710
60804.000			28.257			-4.709
60905.000			28.256			-4.709
61004.000			28.256			-4.709
61104.000			28.255			-4.709
61204.000			28.253			-4.709
61304.000			28.252			-4.709
61404.000			28.251			-4.709
61505.000			28.251			-4.709
61604.000			28.251			-4.708
61703.000			28.250			-4.708
61805.000			28.248			-4.708
61904.000			28.248			-4.708
62004.000			28.248			-4.708
62105.000			28.247			-4.708
62204.000			28.246			-4.708
62305.000			28.246			-4.708
62403.000			28.245			-4.708
62504.000			28.244			-4.707
62605.000			28.243			-4.707
62704.000			28.243			-4.707
62804.000			28.242			-4.707
62905.000			28.241			-4.707
63004.000			28.240			-4.707
63103.000			28.238			-4.706
63205.000			28.238			-4.706
63304.000			28.237			-4.706
63404.000			28.236			-4.706
63505.000			28.236			-4.706
63604.000			28.236			-4.706
63704.000			28.235			-4.706
63804.000			28.234			-4.706
63904.000			28.234			-4.706
64004.000			28.233			-4.706
64105.000			28.232			-4.705
64204.000			28.232			-4.705
64304.000			28.231			-4.705
64405.000			28.231			-4.705
64503.000			28.229			-4.705
64604.000			28.228			-4.705
64705.000			28.227			-4.705
64804.000			28.227			-4.705
64904.000			28.227			-4.704
65005.000			28.225			-4.704
65104.000			28.225			-4.704
65203.000			28.224			-4.704
65305.000			28.223			-4.704
65404.000			28.223			-4.704
65505.000			28.222			-4.704
65604.000			28.221			-4.703
65704.000			28.219			-4.703
65805.000			28.219			-4.703
65903.000			28.220			-4.703
66004.000			28.219			-4.703
66105.000			28.217			-4.703
66204.000			28.216			-4.703
66304.000			28.216			-4.703
66405.000			28.215			-4.703
66504.000			28.214			-4.702
66603.000			28.213			-4.702
66705.000			28.213			-4.702
66804.000			28.212			-4.702
66904.000			28.211			-4.702
67005.000			28.210			-4.702
67104.000			28.209			-4.702
67204.000			28.209			-4.701
67304.000			28.208			-4.701
67404.000			28.208			-4.701
67504.000			28.207			-4.701
67605.000			28.206			-4.701
67704.000			28.205			-4.701
67804.000			28.205			-4.701
67905.000			28.204			-4.701
68003.000			28.203			-4.701
68104.000			28.202			-4.700
68205.000			28.201			-4.700
68304.000			28.201			-4.700
68404.000			28.201			-4.700
68504.000			28.201			-4.700
68604.000			28.200			-4.700
68703.000			28.199			-4.700
68804.000			28.196			-4.699
68904.000			28.197			-4.699
69005.000			28.197			-4.699
69104.000			28.196			-4.699
69204.000			28.195			-4.699
69305.000			28.194			-4.699
69403.000			28.194			-4.699
69504.000			28.192			-4.699
69605.000			28.192			-4.699
69704.000			28.191			-4.699
69804.000			28.191			-4.698
69905.000			28.191			-4.698
70004.000			28.190			-4.698
70103.000			28.189			-4.698
70205.000			28.188			-4.698
70304.000			28.188			-4.698
70404.000			28.188			-4.698
70505.000			28.186			-4.698
70604.000			28.186			-4.698
70704.000			28.185			-4.697
70804.000			28.184			-4.697
70904.000			28.183			-4.697
71004.000			28.182			-4.697
71105.000			28.182			-4.697
71204.000			28.181			-4.697
71304.000			28.180			-4.697
71405.000			28.180			-4.697
71503.000			28.179			-4.696
71604.000			28.178			-4.696
71705.000			28.178			-4.696
71804.000			28.177			-4.696
71905.000			28.176			-4.696
72004.000			28.176			-4.696
72104.000			28.176			-4.696
72204.000			28.175			-4.696
72304.000			28.173			-4.696
72404.000			28.172			-4.695
72505.000			28.171			-4.695
72604.000			28.171			-4.695
72704.000			28.171			-4.695
72805.000			28.170			-4.695
72903.000			28.169			-4.695
73004.000			28.169			-4.695
73105.000			28.168			-4.695
73204.000			28.167			-4.695
73304.000			28.167			-4.694
73405.000			28.166			-4.694
73504.000			28.166			-4.694
73603.000			28.166			-4.694
73705.000			28.165			-4.694
73804.000			28.164			-4.694
73904.000			28.163			-4.694
74005.000			28.163			-4.694
74104.000			28.162			-4.694
74204.000			28.161			-4.694
74304.000			28.161			-4.693
74404.000			28.161			-4.693
74504.000			28.160			-4.693
74605.000			28.159			-4.693
74704.000			28.158			-4.693
74804.000			28.157			-4.693
74905.000			28.158			-4.693
75003.000			28.157			-4.693
75105.000			28.156			-4.693
75204.000			28.156			-4.693
75304.000			28.154			-4.692
75405.000			28.153			-4.692
75504.000			28.153			-4.692
75604.000			28.152			-4.692
75704.000			28.151			-4.692
75804.000			28.150			-4.692
75904.000			28.151			-4.692
76005.000			28.150			-4.692
76104.000			28.148			-4.691
76204.000			28.148			-4.691
76305.000			28.148			-4.691
76403.000			28.148			-4.691
76504.000			28.149			-4.691
76605.000			28.147			-4.691
76704.000			28.145			-4.691
76804.000			28.144			-4.691
76905.000			28.144			-4.691
77004.000			28.144			-4.691
77104.000			28.142			-4.690
77205.000			28.141			-4.690
77303.000			28.141			-4.690
77404.000			28.141			-4.690
77505.000			28.141			-4.690
77604.000			28.140			-4.690
77704.000			28.140			-4.690
77804.000			28.140			-4.690
77904.000			28.138			-4.690
78003.000			28.136			-4.689
78105.000			28.136			-4.689
78204.000			28.136			-4.689
78305.000			28.136			-4.689
78404.000			28.135			-4.689
78503.000			28.135			-4.689
78605.000			28.135			-4.689
78703.000			28.134			-4.689
78804.000			28.134			-4.689
78905.000			28.133			-4.689
79004.000			28.130			-4.688
79104.000			28.131			-4.688
79205.000			28.130			-4.688
79304.000			28.129			-4.688
79403.000			28.129			-4.688
79505.000			28.128			-4.688
79604.000			28.128			-4.688
79704.000			28.127			-4.688
79805.000			28.126			-4.688
79904.000			28.125			-4.688
80004.000			28.124			-4.687
80104.000			28.124			-4.687
80204.000			28.123			-4.687
80304.000			28.123			-4.687
80405.000			28.123			-4.687
80504.000			28.121			-4.687
80604.000			28.122			-4.687
80705.000			28.122			-4.687
80803.000			28.121			-4.687
80904.000			28.120			-4.687
81005.000			28.120			-4.687
81104.000			28.118			-4.686
81204.000			28.118			-4.686
81304.000			28.118			-4.686
81404.000			28.117			-4.686
81503.000			28.117			-4.686
81604.000			28.117			-4.686
81704.000			28.115			-4.686
81805.000			28.113			-4.686
81904.000			28.114			-4.686
82004.000			28.113			-4.686
82105.000			28.112			-4.685
82203.000			28.113			-4.685
82304.000			28.112			-4.685
82405.000			28.111			-4.685
82504.000			28.109			-4.685
82604.000			28.110			-4.685
82705.000			28.108			-4.685
82804.000			28.108			-4.685
82903.000			28.108			-4.685
83005.000			28.107			-4.685
83104.000			28.107			-4.684
83204.000			28.107			-4.684
83305.000			28.106			-4.684
83404.000			28.104			-4.684
83504.000			28.104			-4.684
83604.000			28.104			-4.684
83704.000			28.104			-4.684
83804.000			28.102			-4.684
83905.000			28.100			-4.683
84004.000			28.101			-4.683
84103.000			28.102			-4.684
84205.000			28.102			-4.684
84304.000			28.100			-4.683
84404.000			28.099			-4.683
84505.000			28.098			-4.683
84604.000			28.098			-4.683
84705.000			28.097			-4.683
84804.000			28.098			-4.683
84904.000			28.096			-4.683
85004.000			28.097			-4.683
85104.000			28.097			-4.683
85204.000			28.096			-4.683
85305.000			28.095			-4.682
85404.000			28.095			-4.683
85504.000			28.094			-4.682
85605.000			28.093			-4.682
85703.000			28.093			-4.682
85804.000			28.092			-4.682
85905.000			28.091			-4.682
86004.000			28.090			-4.682
86104.000			28.090			-4.682
86205.000			28.090			-4.682
86304.000			28.088			-4.681
86403.000			28.088			-4.681
86505.000			28.089			-4.681
86604.000			28.087			-4.681
86704.000			28.087			-4.681
86805.000			28.087			-4.681
86904.000			28.086			-4.681
87004.000			28.084			-4.681
87104.000			28.083			-4.681
87204.000			28.084			-4.681
87304.000			28.084			-4.681
87405.000			28.084			-4.681
87504.000			28.083			-4.680
87604.000			28.082			-4.680
87705.000			28.081			-4.680
87803.000			28.079			-4.680
87905.000			28.079			-4.680
88003.000			28.078			-4.680
88104.000			28.078			-4.680
88205.000			28.078			-4.680
88304.000			28.077			-4.680
88404.000			28.077			-4.679
88505.000			28.076			-4.679
88604.000			28.076			-4.679
88703.000			28.076			-4.679
88805.000			28.075			-4.679
88904.000			28.074			-4.679
89004.000			28.073			-4.679
89105.000			28.073			-4.679
89204.000			28.073			-4.679
89304.000			28.072			-4.679
89404.000			28.071			-4.679
89504.000			28.070			-4.678
89604.000			28.070			-4.678
89705.000			28.070			-4.678
89804.000			28.069			-4.678
89904.000			28.068			-4.678
90005.000			28.067			-4.678
90103.000			28.068			-4.678
90204.000			28.066			-4.678
90305.000			28.066			-4.678
90404.000			28.066			-4.678
90504.000			28.065			-4.678
90605.000			28.065			-4.677
90704.000			28.065			-4.677
90803.000			28.063			-4.677
90905.000			28.062			-4.677
91004.000			28.063			-4.677
91105.000			28.062			-4.677
91204.000			28.061			-4.677
91304.000			28.062			-4.677
91405.000			28.060			-4.677
91503.000			28.059			-4.677
91604.000			28.059			-4.677
91705.000			28.059			-4.676
91804.000			28.059			-4.676
91904.000			28.059			-4.676
92005.000			28.058			-4.676
92104.000			28.056			-4.676
92203.000			28.056			-4.676
92305.000			28.056			-4.676
92404.000			28.054			-4.676
92504.000			28.053			-4.676
92605.000			28.053			-4.675
92704.000			28.053			-4.675
92804.000			28.052			-4.675
92904.000			28.052			-4.675
93004.000			28.050			-4.675
93104.000			28.049			-4.675
93205.000			28.049			-4.675
93304.000			28.049			-4.675
93404.000			28.050			-4.675
93505.000			28.048			-4.675
93603.000			28.048			-4.675
93704.000			28.047			-4.675
93805.000			28.047			-4.674
93904.000			28.046			-4.674
94004.000			28.047			-4.674
94104.000			28.047			-4.675
94204.000			28.047			-4.675
94303.000			28.045			-4.674
94404.000			28.044			-4.674
94504.000			28.044			-4.674
94605.000			28.043			-4.674
94704.000			28.042			-4.674
94804.000			28.043			-4.674
94905.000			28.042			-4.674
95003.000			28.041			-4.674
95104.000			28.040			-4.673
95205.000			28.040			-4.673
95304.000			28.039			-4.673
95404.000			28.038			-4.673
95505.000			28.038			-4.673
95604.000			28.038			-4.673
95703.000			28.038			-4.673
95805.000			28.037			-4.673
95904.000			28.038			-4.673
96004.000			28.037			-4.673
96105.000			28.036			-4.673
96204.000			28.036			-4.673
96304.000			28.035			-4.672
96404.000			28.034			-4.672
96504.000			28.034			-4.672
96604.000			28.034			-4.672
96705.000			28.033			-4.672
96804.000			28.033			-4.672
96904.000			28.032			-4.672
97005.000			28.031			-4.672
97103.000			28.030			-4.672
97204.000			28.030			-4.672
97305.000			28.029			-4.672
97404.000			28.029			-4.672
97505.000			28.029			-4.671
97604.000			28.029			-4.671
97704.000			28.028			-4.671
97804.000			28.026			-4.671
97904.000			28.027			-4.671
98004.000			28.026			-4.671
98105.000			28.025			-4.671
98204.000			28.026			-4.671
98304.000			28.025			-4.671
98405.000			28.023			-4.670
98503.000			28.023			-4.671
98604.000			28.022			-4.670
98705.000			28.022			-4.670
98804.000			28.022			-4.670
98904.000			28.021			-4.670
99005.000			28.021			-4.670
99104.000			28.020			-4.670
99203.000			28.019			-4.670
99305.000			28.019			-4.670
99404.000			28.019			-4.670
99504.000			28.019			-4.670
99605.000			28.019			-4.670
99704.000			28.019			-4.670
99804.000			28.018			-4.670
99904.000			28.017			-4.669
100004.000			28.016			-4.669
100103.000			28.016			-4.669
100205.000			28.015			-4.669
100304.000			28.014			-4.669
100404.000			28.012			-4.669
100505.000			28.012			-4.669
100603.000			28.012			-4.669
100705.000			28.012			-4.669
100804.000			28.012			-4.669
100904.000			28.010			-4.668
101005.000			28.010			-4.668
101104.000			28.009			-4.668
101204.000			28.009			-4.668
101304.000			28.009			-4.668
101404.000			28.009			-4.668
101504.000			28.009			-4.668
101605.000			28.007			-4.668
101704.000			28.007			-4.668
101804.000			28.007			-4.668
101905.000			28.007			-4.668
102004.000			28.006			-4.668
102104.000			28.006			-4.668
102204.000			28.005			-4.668
102304.000			28.003			-4.667
102404.000			28.003			-4.667
102505.000			28.003			-4.667
102604.000			28.002			-4.667
102703.000			28.003			-4.667
102805.000			28.002			-4.667
102903.000			28.002			-4.667
103004.000			28.001			-4.667
103105.000			28.000			-4.667
103204.000			27.999			-4.667
103304.000			28.000			-4.667
103404.000			27.999			-4.667
103504.000			27.997			-4.666
103603.000			27.997			-4.666
103705.000			27.998			-4.666
103804.000			27.996			-4.666
103905.000			27.996			-4.666
104004.000			27.995			-4.666
104104.000			27.996			-4.666
104205.000			27.995			-4.666
104303.000			27.994			-4.666
104404.000			27.994			-4.666
104505.000			27.994			-4.666
104604.000			27.992			-4.665
104704.000			27.992			-4.665
104805.000			27.993			-4.665
104904.000			27.993			-4.665
105004.000			27.992			-4.665
105105.000			27.992			-4.665
105203.000			27.991			-4.665
105304.000			27.990			-4.665
105405.000			27.990			-4.665
105504.000			27.991			-4.665
105604.000			27.990			-4.665
105705.000			27.988			-4.665
105804.000			27.989			-4.665
105903.000			27.988			-4.665
106005.000			27.988			-4.665
106104.000			27.988			-4.665
106204.000			27.987			-4.665
106305.000			27.987			-4.664
106404.000			27.986			-4.664
106504.000			27.986			-4.664
106605.000			27.986			-4.664
106704.000			27.984			-4.664
106803.000			27.983			-4.664
106905.000			27.984			-4.664
107004.000			27.984			-4.664
107105.000			27.983			-4.664
107204.000			27.982			-4.664
107304.000			27.982			-4.664
107405.000			27.981			-4.664
107503.000			27.981			-4.664
107604.000			27.981			-4.664
107705.000			27.981			-4.663
107804.000			27.980			-4.663
107904.000			27.980			-4.663
108005.000			27.979			-4.663
108104.000			27.978			-4.663
108204.000			27.977			-4.663
108305.000			27.977			-4.663
108403.000			27.977			-4.663
108504.000			27.976			-4.663
108605.000			27.975			-4.663
108704.000			27.975			-4.662
108804.000			27.975			-4.663
108905.000			27.975			-4.663
109004.000			27.975			-4.663
109103.000			27.974			-4.662
109205.000			27.972			-4.662
109303.000			27.973			-4.662
109404.000			27.973			-4.662
109505.000			27.972			-4.662
109604.000			27.972			-4.662
109704.000			27.971			-4.662
109805.000			27.970			-4.662
109904.000			27.971			-4.662
110003.000			27.969			-4.662
110105.000			27.970			-4.662
110204.000			27.970			-4.662
110305.000			27.968			-4.661
110404.000			27.967			-4.661
110504.000			27.968			-4.661
110605.000			27.969			-4.661
110703.000			27.967			-4.661
110804.000			27.966			-4.661
110905.000			27.966			-4.661
111004.000			27.965			-4.661
111104.000			27.966			-4.661
111205.000			27.965			-4.661
111304.000			27.965			-4.661
111404.000			27.964			-4.661
111505.000			27.963			-4.661
111603.000			27.963			-4.661
111704.000			27.962			-4.660
111805.000			27.962			-4.660
111904.000			27.962			-4.660
112004.000			27.961			-4.660
112105.000			27.962			-4.660
112204.000			27.960			-4.660
112303.000			27.960			-4.660
112405.000			27.960			-4.660
112504.000			27.960			-4.660
112604.000			27.960			-4.660
112705.000			27.958			-4.660
112804.000			27.958			-4.660
112904.000			27.958			-4.660
113004.000			27.958			-4.660
113104.000			27.957			-4.660
113203.000			27.956			-4.659
113305.000			27.956			-4.659
113404.000			27.955			-4.659
113505.000			27.954			-4.659
113604.000			27.954			-4.659
113704.000			27.954			-4.659
113805.000			27.952			-4.659
113903.000			27.952			-4.659
114004.000			27.951			-4.658
114105.000			27.951			-4.658
114204.000			27.951			-4.658
114304.000			27.950			-4.658
114405.000			27.951			-4.659
114504.000			27.950			-4.658
114603.000			27.949			-4.658
114705.000			27.949			-4.658
114804.000			27.949			-4.658
114904.000			27.949			-4.658
115005.000			27.948			-4.658
115104.000			27.947			-4.658
115204.000			27.945			-4.658
115305.000			27.946			-4.658
115404.000			27.946			-4.658
115503.000			27.945			-4.657
115605.000			27.945			-4.657
115704.000			27.945			-4.657
115804.000			27.944			-4.657
115905.000			27.943			-4.657
116004.000			27.943			-4.657
116104.000			27.942			-4.657
116204.000			27.941			-4.657
116304.000			27.941			-4.657
116404.000			27.941			-4.657
116504.000			27.940			-4.657
116604.000			27.940			-4.657
116705.000			27.939			-4.657
116804.000			27.938			-4.656
116904.000			27.939			-4.656
117005.000			27.938			-4.656
117103.000			27.937			-4.656
117204.000			27.937			-4.656
117305.000			27.936			-4.656
117404.000			27.936			-4.656
117504.000			27.937			-4.656
117605.000			27.935			-4.656
117704.000			27.935			-4.656
117803.000			27.935			-4.656
117905.000			27.935			-4.656
118004.000			27.934			-4.656
118104.000			27.933			-4.656
118205.000			27.934			-4.656
118304.000			27.934			-4.656
118404.000			27.932			-4.655
118505.000			27.932			-4.655
118604.000			27.930			-4.655
118703.000			27.930			-4.655
118805.000			27.930			-4.655
118904.000			27.930			-4.655
119004.000			27.930			-4.655
119105.000			27.929			-4.655
119204.000			27.928			-4.655
119304.000			27.928			-4.655
119404.000			27.928			-4.655
119504.000			27.928			-4.655
119604.000			27.927			-4.655
119704.000			27.926			-4.654
119804.000			27.927			-4.654
119905.000			27.925			-4.654
120004.000			27.924			-4.654
120103.000			27.925			-4.654
120205.000			27.924			-4.654
120304.000			27.924			-4.654
120404.000			27.925			-4.654
120505.000			27.924			-4.654
120604.000			27.923			-4.654
120704.000			27.923			-4.654
120804.000			27.922			-4.654
120904.000			27.922			-4.654
121003.000			27.922			-4.654
121105.000			27.921			-4.654
121204.000			27.920			-4.653
121304.000			27.920			-4.653
121405.000			27.920			-4.653
121504.000			27.919			-4.653
121604.000			27.919			-4.653
121704.000			27.919			-4.653
121804.000			27.918			-4.653
121904.000			27.918			-4.653
122005.000			27.917			-4.653
122104.000			27.917			-4.653
122204.000			27.916			-4.653
122305.000			27.916			-4.653
122403.000			27.915			-4.653
122504.000			27.915			-4.652
122605.000			27.914			-4.652
122704.000			27.914			-4.652
122804.000			27.914			-4.652
122904.000			27.914			-4.652
123004.000			27.913			-4.652
123103.000			27.912			-4.652
123204.000			27.912			-4.652
123303.000			27.913			-4.652
123405.000			27.912			-4.652
123504.000			27.912			-4.652
123604.000			27.912			-4.652
123705.000			27.912			-4.652
123804.000			27.911			-4.652
123904.000			27.910			-4.652
124004.000			27.910			-4.652
124104.000			27.910			-4.652
124204.000			27.909			-4.651
124305.000			27.908			-4.651
124404.000			27.908			-4.651
124504.000			27.907			-4.651
124605.000			27.907			-4.651
124703.000			27.907			-4.651
124804.000			27.906			-4.651
124905.000			27.905			-4.651
125004.000			27.905			-4.651
125104.000			27.905			-4.651
125205.000			27.905			-4.651
125304.000			27.905			-4.651
125403.000			27.904			-4.651
125505.000			27.903			-4.650
125604.000			27.903			-4.650
125704.000			27.901			-4.650
125805.000			27.901			-4.650
125904.000			27.901			-4.650
126004.000			27.902			-4.650
126104.000			27.902			-4.650
126204.000			27.900			-4.650
126303.000			27.900			-4.650
126404.000			27.899			-4.650
126504.000			27.900			-4.650
126605.000			27.900			-4.650
126704.000			27.900			-4.650
126804.000			27.899			-4.650
126905.000			27.898			-4.650
127003.000			27.898			-4.650
127104.000			27.897			-4.650
127204.000			27.897			-4.650
127304.000			27.897			-4.649
127404.000			27.896			-4.649
127505.000			27.895			-4.649
127604.000			27.895			-4.649
127704.000			27.895			-4.649
127805.000			27.894			-4.649
127903.000			27.893			-4.649
128004.000			27.893			-4.649
128105.000			27.894			-4.649
128204.000			27.894			-4.649
128304.000			27.894			-4.649
128405.000			27.892			-4.649
128504.000			27.892			-4.649
128604.000			27.892			-4.649
128705.000			27.891			-4.648
128803.000			27.891			-4.648
128904.000			27.890			-4.648
129005.000			27.890			-4.648
129104.000			27.890			-4.648
129204.000			27.890			-4.648
129304.000			27.889			-4.648
129404.000			27.889			-4.648
129503.000			27.889			-4.648
129604.000			27.889			-4.648
129703.000			27.888			-4.648
129805.000			27.887			-4.648
129904.000			27.886			-4.648
130004.000			27.887			-4.648
130105.000			27.886			-4.648
130204.000			27.886			-4.648
130304.000			27.885			-4.647
130404.000			27.885			-4.647
130504.000			27.884			-4.647
130604.000			27.884			-4.647
130705.000			27.884			-4.647
130804.000			27.884			-4.647
130904.000			27.884			-4.647
131005.000			27.883			-4.647
131103.000			27.883			-4.647
131204.000			27.882			-4.647
131304.000			27.881			-4.647
131404.000			27.881			-4.647
131504.000			27.881			-4.647
131605.000			27.880			-4.647
131704.000			27.880			-4.647
131804.000			27.880			-4.647
131905.000			27.879			-4.647
132003.000			27.879			-4.646
132104.000			27.879			-4.647
132204.000			27.878			-4.646
132304.000			27.878			-4.646
132404.000			27.878			-4.646
132504.000			27.879			-4.646
132604.000			27.878			-4.646
132705.000			27.876			-4.646
132804.000			27.877			-4.646
132904.000			27.876			-4.646
133005.000			27.876			-4.646
133103.000			27.875			-4.646
133204.000			27.875			-4.646
133305.000			27.875			-4.646
133404.000			27.874			-4.646
133504.000			27.874			-4.646
133605.000			27.873			-4.646
133704.000			27.874			-4.646
133804.000			27.872			-4.645
133905.000			27.872			-4.645
134003.000			27.872			-4.645
134104.000			27.872			-4.645
134205.000			27.870			-4.645
134304.000			27.871			-4.645
134404.000			27.869			-4.645
134505.000			27.869			-4.645
134604.000			27.869			-4.645
134704.000			27.869			-4.645
134805.000			27.868			-4.645
134903.000			27.868			-4.645
135004.000			27.868			-4.645
135104.000			27.867			-4.644
135204.000			27.867			-4.644
135304.000			27.867			-4.644
135405.000			27.866			-4.644
135504.000			27.865			-4.644
135604.000			27.865			-4.644
135705.000			27.865			-4.644
135804.000			27.865			-4.644
135905.000			27.864			-4.644
136003.000			27.864			-4.644
136104.000			27.863			-4.644
136205.000			27.864			-4.644
136304.000			27.864			-4.644
136404.000			27.863			-4.644
136505.000			27.863			-4.644
136604.000			27.863			-4.644
136704.000			27.863			-4.644
136805.000			27.861			-4.644
136903.000			27.861			-4.643
137004.000			27.861			-4.644
137105.000			27.862			-4.644
137204.000			27.862			-4.644
137304.000			27.859			-4.643
137405.000			27.859			-4.643
137504.000			27.859			-4.643
137604.000			27.859			-4.643
137705.000			27.858			-4.643
137803.000			27.857			-4.643
137904.000			27.857			-4.643
138004.000			27.856			-4.643
138104.000			27.857			-4.643
138204.000			27.857			-4.643
138305.000			27.856			-4.643
138404.000			27.856			-4.643
138504.000			27.856			-4.643
138605.000			27.855			-4.642
138704.000			27.856			-4.643
138804.000			27.856			-4.643
138903.000			27.854			-4.642
139004.000			27.853			-4.642
139105.000			27.853			-4.642
139204.000			27.852			-4.642
139304.000			27.852			-4.642
139405.000			27.852			-4.642
139504.000			27.851			-4.642
139604.000			27.852			-4.642
139705.000			27.851			-4.642
139803.000			27.851			-4.642
139904.000			27.851			-4.642
140004.000			27.849			-4.642
140104.000			27.849			-4.642
140204.000			27.848			-4.641
140305.000			27.849			-4.641
140404.000			27.848			-4.641
140504.000			27.849			-4.642
140605.000			27.847			-4.641
140703.000			27.846			-4.641
140804.000			27.846			-4.641
140904.000			27.845			-4.641
141004.000			27.845			-4.641
141104.000			27.845			-4.641
141205.000			27.845			-4.641
141304.000			27.844			-4.641
141404.000			27.844			-4.641
141505.000			27.843			-4.641
141604.000			27.842			-4.640
141704.000			27.842			-4.640
141804.000			27.843			-4.640
141904.000			27.843			-4.640
142004.000			27.842			-4.640
142104.000			27.841			-4.640
142204.000			27.841			-4.640
142305.000			27.840			-4.640
142404.000			27.839			-4.640
142504.000			27.839			-4.640
142605.000			27.838			-4.640
142703.000			27.839			-4.640
142804.000			27.839			-4.640
142905.000			27.840			-4.640
143004.000			27.839			-4.640
143104.000			27.838			-4.640
143205.000			27.838			-4.640
143304.000			27.838			-4.640
143404.000			27.837			-4.640
143505.000			27.836			-4.639
143603.000			27.835			-4.639
143704.000			27.836			-4.639
143805.000			27.835			-4.639
143904.000			27.835			-4.639
144004.000			27.834			-4.639
144105.000			27.833			-4.639
144204.000			27.833			-4.639
144304.000			27.834			-4.639
144405.000			27.833			-4.639
144503.000			27.834			-4.639
144604.000			27.833			-4.639
144705.000			27.833			-4.639
144804.000			27.833			-4.639
144904.000			27.833			-4.639
145005.000			27.831			-4.639
145104.000			27.832			-4.639
145204.000			27.832			-4.639
145305.000			27.831			-4.638
145403.000			27.830			-4.638
145505.000			27.830			-4.638
145604.000			27.829			-4.638
145704.000			27.829			-4.638
145805.000			27.829			-4.638
145904.000			27.829			-4.638
146004.000			27.826			-4.638
146105.000			27.826			-4.638
146204.000			27.827			-4.638
146303.000			27.827			-4.638
146405.000			27.827			-4.638
146503.000			27.826			-4.638
146604.000			27.826			-4.638
146705.000			27.825			-4.638
146804.000			27.826			-4.638
146904.000			27.826			-4.638
147005.000			27.825			-4.638
147104.000			27.824			-4.637
147203.000			27.824			-4.637
147305.000			27.823			-4.637
147403.000			27.823			-4.637
147504.000			27.823			-4.637
147605.000			27.821			-4.637
147704.000			27.820			-4.637
147804.000			27.820			-4.637
147905.000			27.820			-4.637
148004.000			27.821			-4.637
148103.000			27.821			-4.637
148205.000			27.821			-4.637
148303.000			27.820			-4.637
148404.000			27.821			-4.637
148505.000			27.820			-4.637
148604.000			27.819			-4.637
148705.000			27.819			-4.637
148804.000			27.818			-4.636
148904.000			27.818			-4.636
149005.000			27.818			-4.636
149104.000			27.818			-4.636
149203.000			27.817			-4.636
149305.000			27.817			-4.636
149404.000			27.817			-4.636
149504.000			27.816			-4.636
149605.000			27.816			-4.636
149704.000			27.816			-4.636
149804.000			27.815			-4.636
149905.000			27.815			-4.636
150004.000			27.815			-4.636
150103.000			27.814			-4.636
150205.000			27.814			-4.636
150304.000			27.814			-4.636
150404.000			27.814			-4.636
150505.000			27.814			-4.636
150604.000			27.813			-4.635
150704.000			27.812			-4.635
150805.000			27.812			-4.635
150904.000			27.812			-4.635
151003.000			27.811			-4.635
151105.000			27.812			-4.635
151204.000			27.812			-4.635
151304.000			27.810			-4.635
151405.000			27.811			-4.635
151504.000			27.811			-4.635
151604.000			27.810			-4.635
151704.000			27.810			-4.635
151804.000			27.809			-4.635
151903.000			27.808			-4.635
152004.000			27.807			-4.635
152104.000			27.807			-4.635
152205.000			27.807			-4.635
152304.000			27.807			-4.635
152404.000			27.807			-4.635
152505.000			27.808			-4.635
152604.000			27.806			-4.634
152704.000			27.806			-4.634
152804.000			27.805			-4.634
152904.000			27.806			-4.634
153004.000			27.805			-4.634
153105.000			27.805			-4.634
153204.000			27.805			-4.634
153304.000			27.804			-4.634
153405.000			27.804			-4.634
153504.000			27.805			-4.634
153604.000			27.804			-4.634
153704.000			27.804			-4.634
153804.000			27.803			-4.634
153904.000			27.802			-4.634
154005.000			27.801			-4.633
154104.000			27.801			-4.634
154204.000			27.801			-4.633
154305.000			27.801			-4.634
154404.000			27.801			-4.634
154504.000			27.800			-4.633
154604.000			27.800			-4.633
154704.000			27.800			-4.633
154804.000			27.798			-4.633
154904.000			27.799			-4.633
155004.000			27.799			-4.633
155105.000			27.798			-4.633
155204.000			27.797			-4.633
155304.000			27.798			-4.633
155405.000			27.798			-4.633
155503.000			27.797			-4.633
155604.000			27.797			-4.633
155704.000			27.797			-4.633
155804.000			27.796			-4.633
155904.000			27.795			-4.632
156005.000			27.795			-4.633
156104.000			27.795			-4.633
156204.000			27.794			-4.632
156305.000			27.795			-4.632
156404.000			27.794			-4.632
156504.000			27.794			-4.632
156604.000			27.794			-4.632
156704.000			27.793			-4.632
156804.000			27.793			-4.632
156905.000			27.794			-4.632
157004.000			27.793			-4.632
157104.000			27.791			-4.632
157205.000			27.792			-4.632
157304.000			27.791			-4.632
157404.000			27.790			-4.632
157504.000			27.790			-4.632
157604.000			27.790			-4.632
157703.000			27.789			-4.631
157805.000			27.789			-4.632
157904.000			27.789			-4.632
158004.000			27.789			-4.632
158105.000			27.788			-4.631
158204.000			27.788			-4.631
158305.000			27.788			-4.631
158404.000			27.787			-4.631
158504.000			27.787			-4.631
158604.000			27.788			-4.631
158704.000			27.786			-4.631
158804.000			27.786			-4.631
158905.000			27.786			-4.631
159004.000			27.785			-4.631
159104.000			27.785			-4.631
159205.000			27.785			-4.631
159304.000			27.784			-4.631
159404.000			27.784			-4.631
159504.000			27.784			-4.631
159604.000			27.784			-4.631
159703.000			27.784			-4.631
159805.000			27.784			-4.631
159904.000			27.783			-4.631
160004.000			27.782			-4.630
160105.000			27.782			-4.630
160204.000			27.782			-4.630
160304.000			27.782			-4.630
160405.000			27.780			-4.630
160504.000			27.781			-4.630
160603.000			27.779			-4.630
160705.000			27.780			-4.630
160804.000			27.780			-4.630
160904.000			27.780			-4.630
161005.000			27.779			-4.630
161104.000			27.779			-4.630
161204.000			27.778			-4.630
161304.000			27.779			-4.630
161404.000			27.779			-4.630
161503.000			27.778			-4.630
161604.000			27.778			-4.630
161703.000			27.778			-4.630
161805.000			27.777			-4.629
161904.000			27.776			-4.629
162004.000			27.775			-4.629
162105.000			27.775			-4.629
162204.000			27.776			-4.629
162304.000			27.775			-4.629
162405.000			27.774			-4.629
162504.000			27.774			-4.629
162603.000			27.774			-4.629
162705.000			27.774			-4.629
162804.000			27.774			-4.629
162904.000			27.774			-4.629
163005.000			27.773			-4.629
163104.000			27.773			-4.629
163204.000			27.773			-4.629
163305.000			27.772			-4.629
163404.000			27.772			-4.629
163503.000			27.772			-4.629
163605.000			27.771			-4.628
163704.000			27.770			-4.628
163804.000			27.770			-4.628
163905.000			27.770			-4.628
164004.000			27.770			-4.628
164104.000			27.769			-4.628
164205.000			27.771			-4.628
164304.000			27.769			-4.628
164403.000			27.769			-4.628
164505.000			27.769			-4.628
164603.000			27.769			-4.628
164705.000			27.769			-4.628
164804.000			27.769			-4.628
164904.000			27.768			-4.628
165005.000			27.768			-4.628
165104.000			27.768			-4.628
165204.000			27.768			-4.628
165305.000			27.767			-4.628
165404.000			27.766			-4.628
165503.000			27.767			-4.628
165605.000			27.766			-4.628
165704.000			27.766			-4.628
165804.000			27.766			-4.628
165905.000			27.766			-4.628
166004.000			27.765			-4.627
166104.000			27.765			-4.628
166205.000			27.765			-4.628
166304.000			27.764			-4.627
166403.000			27.764			-4.627
166505.000			27.764			-4.627
166603.000			27.763			-4.627
166704.000			27.763			-4.627
166805.000			27.763			-4.627
166904.000			27.762			-4.627
167004.000			27.762			-4.627
167105.000			27.761			-4.627
167204.000			27.762			-4.627
167304.000			27.761			-4.627
167405.000			27.761			-4.627
167503.000			27.760			-4.627
167604.000			27.759			-4.627
167705.000			27.759			-4.626
167804.000			27.759			-4.626
167905.000			27.758			-4.626
168004.000			27.758			-4.626
168104.000			27.758			-4.626
168205.000			27.758			-4.626
168304.000			27.758			-4.626
168403.000			27.757			-4.626
168505.000			27.757			-4.626
168603.000			27.757			-4.626
168704.000			27.756			-4.626
168805.000			27.755			-4.626
168904.000			27.755			-4.626
169004.000			27.756			-4.626
169105.000			27.756			-4.626
169204.000			27.755			-4.626
169304.000			27.755			-4.626
169405.000			27.755			-4.626
169503.000			27.755			-4.626
169604.000			27.754			-4.626
169704.000			27.754			-4.626
169804.000			27.754			-4.626
169904.000			27.753			-4.625
170005.000			27.752			-4.625
170104.000			27.751			-4.625
170204.000			27.752			-4.625
170305.000			27.752			-4.625
170403.000			27.752			-4.625
170504.000			27.751			-4.625
170604.000			27.752			-4.625
170704.000			27.753			-4.625
170804.000			27.751			-4.625
170904.000			27.751			-4.625
171004.000			27.751			-4.625
171105.000			27.749			-4.625
171204.000			27.749			-4.625
171304.000			27.749			-4.625
171405.000			27.748			-4.625
171503.000			27.748			-4.625
171604.000			27.748			-4.625
171705.000			27.749			-4.625
171804.000			27.747			-4.625
171904.000			27.747			-4.624
172005.000			27.746			-4.624
172104.000			27.746			-4.624
172204.000			27.746			-4.624
172305.000			27.745			-4.624
172403.000			27.745			-4.624
172504.000			27.745			-4.624
172605.000			27.744			-4.624
172704.000			27.743			-4.624
172804.000			27.744			-4.624
172905.000			27.744			-4.624
173004.000			27.744			-4.624
173104.000			27.744			-4.624
173205.000			27.743			-4.624
173303.000			27.743			-4.624
173404.000			27.743			-4.624
173505.000			27.742			-4.624
173604.000			27.741			-4.624
173704.000			27.742			-4.624
173805.000			27.742			-4.624
173904.000			27.741			-4.623
174004.000			27.739			-4.623
174105.000			27.740			-4.623
174203.000			27.741			-4.624
174305.000			27.741			-4.623
174404.000			27.739			-4.623
174504.000			27.739			-4.623
174605.000			27.739			-4.623
174704.000			27.739			-4.623
174804.000			27.738			-4.623
174905.000			27.739			-4.623
175004.000			27.738			-4.623
175104.000			27.737			-4.623
175205.000			27.736			-4.623
175303.000			27.736			-4.623
175404.000			27.736			-4.623
175505.000			27.736			-4.623
175604.000			27.736			-4.623
175704.000			27.735			-4.622
175805.000			27.736			-4.623
175904.000			27.735			-4.622
176004.000			27.735			-4.622
176105.000			27.735			-4.623
176203.000			27.735			-4.623
176304.000			27.734			-4.622
176405.000			27.734			-4.622
176504.000			27.734			-4.622
176604.000			27.733			-4.622
176705.000			27.733			-4.622
176804.000			27.732			-4.622
176904.000			27.731			-4.622
177005.000			27.731			-4.622
177103.000			27.731			-4.622
177204.000			27.731			-4.622
177305.000			27.730			-4.622
177404.000			27.730			-4.622
177505.000			27.730			-4.622
177604.000			27.730			-4.622
177704.000			27.730			-4.622
177805.000			27.729			-4.622
177904.000			27.730			-4.622
178003.000			27.729			-4.622
178105.000			27.729			-4.621
178203.000			27.728			-4.621
178304.000			27.729			-4.622
178405.000			27.727			-4.621
178504.000			27.727			-4.621
178604.000			27.727			-4.621
178705.000			27.727			-4.621
178804.000			27.727			-4.621
178904.000			27.727			-4.621
179005.000			27.726			-4.621
179103.000			27.725			-4.621
179204.000			27.726			-4.621
179305.000			27.726			-4.621
179404.000			27.726			-4.621
179504.000			27.726			-4.621
179605.000			27.725			-4.621
179704.000			27.725			-4.621
179804.000			27.725			-4.621
179905.000			27.725			-4.621
180003.000			27.723			-4.621
180104.000			27.722			-4.620
180205.000			27.723			-4.621
180304.000			27.723			-4.620
180404.000			27.722			-4.620
180504.000			27.722			-4.620
180604.000			27.721			-4.620
180705.000			27.722			-4.620
180804.000			27.722			-4.620
180903.000			27.721			-4.620
181005.000			27.720			-4.620
181104.000			27.720			-4.620
181204.000			27.720			-4.620
181305.000			27.719			-4.620
181404.000			27.719			-4.620
181504.000			27.720			-4.620
181605.000			27.720			-4.620
181704.000			27.718			-4.620
181803.000			27.719			-4.620
181905.000			27.719			-4.620
182003.000			27.719			-4.620
182104.000			27.718			-4.620
182205.000			27.717			-4.620
182304.000			27.717			-4.619
182404.000			27.717			-4.620
182505.000			27.717			-4.619
182604.000			27.716			-4.619
182703.000			27.716			-4.619
182805.000			27.716			-4.619
182903.000			27.714			-4.619
183004.000			27.714			-4.619
183105.000			27.715			-4.619
183204.000			27.715			-4.619
183304.000			27.714			-4.619
183405.000			27.714			-4.619
183504.000			27.714			-4.619
183604.000			27.714			-4.619
183705.000			27.714			-4.619
183803.000			27.714			-4.619
183905.000			27.713			-4.619
184004.000			27.712			-4.619
184104.000			27.713			-4.619
184205.000			27.714			-4.619
184304.000			27.714			-4.619
184404.000			27.714			-4.619
184505.000			27.713			-4.619
184604.000			27.713			-4.619
184703.000			27.713			-4.619
184805.000			27.713			-4.619
184904.000			27.711			-4.619
185004.000			27.711			-4.619
185105.000			27.711			-4.618
185204.000			27.710			-4.618
185304.000			27.710			-4.618
185405.000			27.709			-4.618
185504.000			27.709			-4.618
185603.000			27.709			-4.618
185705.000			27.708			-4.618
185804.000			27.709			-4.618
185904.000			27.709			-4.618
186005.000			27.707			-4.618
186104.000			27.706			-4.618
186204.000			27.706			-4.618
186305.000			27.706			-4.618
186404.000			27.706			-4.618
186503.000			27.706			-4.618
186605.000			27.705			-4.617
186703.000			27.705			-4.617
186804.000			27.704			-4.617
186905.000			27.705			-4.617
187004.000			27.705			-4.618
187105.000			27.704			-4.617
187204.000			27.703			-4.617
187304.000			27.704			-4.617
187404.000			27.704			-4.617
187504.000			27.703			-4.617
187603.000			27.702			-4.617
187705.000			27.702			-4.617
187804.000			27.703			-4.617
187904.000			27.702			-4.617
188005.000			27.701			-4.617
188104.000			27.701			-4.617
188204.000			27.699			-4.617
188304.000			27.699			-4.616
188404.000			27.699			-4.617
188503.000			27.700			-4.617
188605.000			27.700			-4.617
188704.000			27.699			-4.616
188804.000			27.699			-4.616
188905.000			27.698			-4.616
189004.000			27.697			-4.616
189104.000			27.697			-4.616
189205.000			27.697			-4.616
189304.000			27.696			-4.616
189403.000			27.697			-4.616
189505.000			27.696			-4.616
189603.000			27.696			-4.616
189704.000			27.697			-4.616
189805.000			27.695			-4.616
189904.000			27.695			-4.616
190004.000			27.695			-4.616
190104.000			27.696			-4.616
190204.000			27.695			-4.616
190305.000			27.695			-4.616
190404.000			27.695			-4.616
190503.000			27.695			-4.616
190605.000			27.695			-4.616
190704.000			27.695			-4.616
190804.000			27.693			-4.616
190905.000			27.694			-4.616
191004.000			27.693			-4.616
191104.000			27.693			-4.615
191205.000			27.692			-4.615
191304.000			27.692			-4.615
191403.000			27.692			-4.615
191505.000			27.692			-4.615
191603.000			27.692			-4.615
191704.000			27.692			-4.615
191805.000			27.691			-4.615
191904.000			27.690			-4.615
192004.000			27.690			-4.615
192105.000			27.690			-4.615
192204.000			27.689			-4.615
192303.000			27.690			-4.615
192405.000			27.690			-4.615
192503.000			27.689			-4.615
192604.000			27.689			-4.615
192705.000			27.688			-4.615
192804.000			27.688			-4.615
192904.000			27.688			-4.615
193005.000			27.688			-4.615
193104.000			27.687			-4.615
193204.000			27.687			-4.614
193305.000			27.686			-4.614
193403.000			27.686			-4.614
193505.000			27.687			-4.615
193604.000			27.686			-4.614
193704.000			27.685			-4.614
193805.000			27.685			-4.614
193904.000			27.685			-4.614
194004.000			27.684			-4.614
194105.000			27.684			-4.614
194204.000			27.684			-4.614
194304.000			27.683			-4.614
194405.000			27.684			-4.614
194503.000			27.684			-4.614
194604.000			27.684			-4.614
194705.000			27.683			-4.614
194804.000			27.682			-4.614
194904.000			27.682			-4.614
195005.000			27.683			-4.614
195104.000			27.682			-4.614
195204.000			27.681			-4.614
195305.000			27.681			-4.614
195403.000			27.681			-4.613
195504.000			27.680			-4.613
195605.000			27.680			-4.613
195704.000			27.680			-4.613
195804.000			27.681			-4.613
195905.000			27.680			-4.613
196004.000			27.679			-4.613
196104.000			27.678			-4.613
196205.000			27.679			-4.613
196304.000			27.678			-4.613
196404.000			27.678			-4.613
196503.000			27.678			-4.613
196604.000			27.677			-4.613
196705.000			27.678			-4.613
196804.000			27.677			-4.613
196904.000			27.677			-4.613
197005.000			27.675			-4.613
197104.000			27.676			-4.613
197204.000			27.676			-4.613
197305.000			27.677			-4.613
197403.000			27.676			-4.613
197504.000			27.675			-4.613
197604.000			27.676			-4.613
197704.000			27.673			-4.612
197804.000			27.673			-4.612
197905.000			27.674			-4.612
198004.000			27.674			-4.612
198104.000			27.674			-4.612
198205.000			27.674			-4.612
198304.000			27.674			-4.612
198404.000			27.674			-4.612
198504.000			27.673			-4.612
198604.000			27.673			-4.612
198703.000			27.673			-4.612
198805.000			27.672			-4.612
198904.000			27.671			-4.612
199004.000			27.672			-4.612
199105.000			27.672			-4.612
199204.000			27.671			-4.612
199304.000			27.671			-4.612
199405.000			27.670			-4.612
199504.000			27.670			-4.612
199603.000			27.670			-4.612
199705.000			27.671			-4.612
199804.000			27.669			-4.612
199905.000			27.670			-4.612
200004.000			27.670			-4.612
200104.000			27.669			-4.612
200205.000			27.669			-4.611
200304.000			27.667			-4.611
200404.000			27.667			-4.611
200504.000			27.668			-4.611
200604.000			27.667			-4.611
200703.000			27.667			-4.611
200805.000			27.667			-4.611
200904.000			27.666			-4.611
201004.000			27.667			-4.611
201105.000			27.667			-4.611
201204.000			27.666			-4.611
201304.000			27.664			-4.611
201404.000			27.665			-4.611
201504.000			27.665			-4.611
201603.000			27.665			-4.611
201705.000			27.664			-4.611
201804.000			27.664			-4.611
201904.000			27.663			-4.611
202005.000			27.663			-4.611
202104.000			27.663			-4.611
202204.000			27.663			-4.611
202304.000			27.663			-4.611
202404.000			27.663			-4.610
202504.000			27.662			-4.610
202605.000			27.662			-4.610
202704.000			27.662			-4.610
202804.000			27.662			-4.610
202905.000			27.662			-4.610
203004.000			27.662			-4.610
203105.000			27.661			-4.610
203203.000			27.660			-4.610
203304.000			27.660			-4.610
203405.000			27.659			-4.610
203504.000			27.659			-4.610
203604.000			27.658			-4.610
203705.000			27.658			-4.610
203804.000			27.658			-4.610
203904.000			27.658			-4.610
204005.000			27.658			-4.610
204103.000			27.659			-4.610
204204.000			27.658			-4.610
204304.000			27.657			-4.610
204404.000			27.657			-4.609
204504.000			27.656			-4.609
204605.000			27.657			-4.609
204704.000			27.657			-4.610
204804.000			27.657			-4.609
204905.000			27.656			-4.609
205004.000			27.656			-4.609
205104.000			27.655			-4.609
205204.000			27.654			-4.609
205304.000			27.654			-4.609
205404.000			27.655			-4.609
205505.000			27.655			-4.609
205604.000			27.655			-4.609
205704.000			27.654			-4.609
205805.000			27.653			-4.609
205904.000			27.652			-4.609
206004.000			27.654			-4.609
206103.000			27.655			-4.609
206204.000			27.654			-4.609
206305.000			27.653			-4.609
206404.000			27.652			-4.609
206504.000			27.652			-4.609
206605.000			27.652			-4.609
206704.000			27.651			-4.609
206804.000			27.651			-4.609
206905.000			27.651			-4.608
207003.000			27.650			-4.608
207104.000			27.651			-4.608
207205.000			27.650			-4.608
207304.000			27.650			-4.608
207404.000			27.650			-4.608
207505.000			27.650			-4.608
207604.000			27.650			-4.608
207704.000			27.650			-4.608
207805.000			27.648			-4.608
207903.000			27.649			-4.608
208004.000			27.648			-4.608
208105.000			27.647			-4.608
208204.000			27.647			-4.608
208304.000			27.648			-4.608
208405.000			27.648			-4.608
208504.000			27.648			-4.608
208604.000			27.647			-4.608
208705.000			27.645			-4.607
208803.000			27.645			-4.607
208904.000			27.646			-4.608
209005.000			27.646			-4.608
209104.000			27.646			-4.608
209204.000			27.644			-4.607
209304.000			27.644			-4.607
209404.000			27.644			-4.607
209505.000			27.644			-4.607
209604.000			27.644			-4.607
209703.000			27.645			-4.607
209805.000			27.644			-4.607
209904.000			27.643			-4.607
210004.000			27.642			-4.607
210105.000			27.642			-4.607
210204.000			27.642			-4.607
210304.000			27.643			-4.607
210405.000			27.643			-4.607
210504.000			27.642			-4.607
210603.000			27.642			-4.607
210705.000			27.642			-4.607
210804.000			27.641			-4.607
210904.000			27.642			-4.607
211005.000			27.641			-4.607
211104.000			27.641			-4.607
211204.000			27.640			-4.607
211304.000			27.639			-4.607
211404.000			27.639			-4.607
211503.000			27.639			-4.607
211605.000			27.638			-4.606
211704.000			27.638			-4.606
211804.000			27.639			-4.607
211905.000			27.639			-4.607
212004.000			27.638			-4.606
212104.000			27.638			-4.606
212204.000			27.639			-4.607
212304.000			27.638			-4.606
212403.000			27.637			-4.606
212505.000			27.637			-4.606
212604.000			27.638			-4.606
212705.000			27.637			-4.606
212804.000			27.637			-4.606
212904.000			27.636			-4.606
213005.000			27.636			-4.606
213103.000			27.636			-4.606
213204.000			27.636			-4.606
213305.000			27.635			-4.606
213404.000			27.635			-4.606
213504.000			27.635			-4.606
213605.000			27.634			-4.606
213704.000			27.634			-4.606
213804.000			27.634			-4.606
213905.000			27.634			-4.606
214003.000			27.633			-4.606
214104.000			27.634			-4.606
214205.000			27.634			-4.606
214304.000			27.634			-4.606
214404.000			27.633			-4.605
214505.000			27.632			-4.605
214604.000			27.631			-4.605
214704.000			27.632			-4.605
214805.000			27.633			-4.605
214903.000			27.632			-4.605
215004.000			27.632			-4.605
215105.000			27.631			-4.605
215204.000			27.632			-4.605
215304.000			27.631			-4.605
215405.000			27.631			-4.605
215504.000			27.632			-4.605
215603.000			27.632			-4.605
215705.000			27.630			-4.605
215803.000			27.630			-4.605
215905.000			27.629			-4.605
216004.000			27.629			-4.605
216104.000			27.629			-4.605
216205.000			27.629			-4.605
216304.000			27.629			-4.605
216404.000			27.628			-4.605
216505.000			27.629			-4.605
216604.000			27.628			-4.605
216703.000			27.628			-4.605
216805.000			27.628			-4.605
216904.000			27.628			-4.605
217004.000			27.627			-4.604
217105.000			27.626			-4.604
217204.000			27.627			-4.605
217304.000			27.625			-4.604
217405.000			27.625			-4.604
217504.000			27.625			-4.604
217603.000			27.625			-4.604
217705.000			27.626			-4.604
217804.000			27.626			-4.604
217904.000			27.625			-4.604
218005.000			27.625			-4.604
218104.000			27.624			-4.604
218204.000			27.624			-4.604
218305.000			27.624			-4.604
218404.000			27.625			-4.604
218503.000			27.624			-4.604
218605.000			27.624			-4.604
218704.000			27.624			-4.604
218804.000			27.623			-4.604
218905.000			27.622			-4.604
219004.000			27.622			-4.604
219105.000			27.622			-4.604
219204.000			27.621			-4.604
219304.000			27.622			-4.604
219404.000			5.237			-0.873
219504.000			136.295			-22.716
219604.000			27.622			-4.604
219705.000			27.622			-4.604
219804.000			27.622			-4.604
219904.000			27.621			-4.603
220005.000			27.620			-4.603
220104.000			27.620			-4.603
220204.000			27.619			-4.603
220304.000			27.620			-4.603
220404.000			27.620			-4.603
220503.000			27.619			-4.603
220605.000			27.619			-4.603
220704.000			27.619			-4.603
220804.000			27.619			-4.603
220905.000			27.619			-4.603
221004.000			27.618			-4.603
221104.000			27.617			-4.603
221204.000			27.616			-4.603
221304.000			27.616			-4.603
221404.000			27.617			-4.603
221505.000			27.617			-4.603
221604.000			27.615			-4.603
221704.000			27.615			-4.603
221805.000			27.616			-4.603
221904.000			27.616			-4.603
222004.000			27.617			-4.603
222103.000			27.616			-4.603
222204.000			27.616			-4.603
222305.000			27.615			-4.603
222404.000			27.615			-4.602
222504.000			27.615			-4.602
222605.000			27.613			-4.602
222704.000			27.613			-4.602
222803.000			27.613			-4.602
222905.000			27.613			-4.602
223003.000			27.612			-4.602
223104.000			27.613			-4.602
223205.000			27.612			-4.602
223304.000			27.612			-4.602
223404.000			27.612			-4.602
223505.000			27.611			-4.602
223604.000			27.611			-4.602
223703.000			27.610			-4.602
223805.000			27.611			-4.602
223904.000			27.612			-4.602
224004.000			27.611			-4.602
224105.000			27.610			-4.602
224204.000			27.610			-4.602
224304.000			27.609			-4.602
224405.000			27.610			-4.602
224504.000			27.608			-4.601
224603.000			27.608			-4.601
224705.000			27.609			-4.602
224804.000			27.609			-4.602
224904.000			27.609			-4.601
225005.000			27.609			-4.601
225104.000			27.609			-4.602
225204.000			27.609			-4.601
225304.000			27.608			-4.601
225404.000			27.608			-4.601
225503.000			27.609			-4.601
225604.000			27.608			-4.601
225703.000			27.608			-4.601
225805.000			27.607			-4.601
225904.000			27.607			-4.601
226004.000			27.606			-4.601
226105.000			27.606			-4.601
226204.000			27.608			-4.601
226304.000			27.608			-4.601
226404.000			27.606			-4.601
226504.000			27.605			-4.601
226603.000			27.606			-4.601
226705.000			27.606			-4.601
226804.000			27.606			-4.601
226904.000			27.605			-4.601
227005.000			27.604			-4.601
227104.000			27.604			-4.601
227204.000			27.604			-4.601
227304.000			27.605			-4.601
227404.000			27.604			-4.601
227504.000			27.605			-4.601
227605.000			27.604			-4.601
227704.000			27.604			-4.601
227804.000			27.603			-4.600
227905.000			27.603			-4.600
228004.000			27.602			-4.600
228104.000			27.602			-4.600
228204.000			27.602			-4.600
228304.000			27.601			-4.600
228404.000			27.601			-4.600
228504.000			27.600			-4.600
228604.000			27.601			-4.600
228705.000			27.601			-4.600
228804.000			27.601			-4.600
228904.000			27.600			-4.600
229005.000			27.599			-4.600
229103.000			27.599			-4.600
229204.000			27.600			-4.600
229304.000			27.600			-4.600
229404.000			27.599			-4.600
229504.000			27.598			-4.600
229605.000			27.598			-4.600
229704.000			27.598			-4.600
229804.000			27.598			-4.600
229905.000			27.597			-4.600
230004.000			27.598			-4.600
230104.000			27.597			-4.600
230204.000			27.598			-4.600
230304.000			27.597			-4.600
230404.000			27.597			-4.600
230505.000			27.596			-4.599
230604.000			27.595			-4.599
230704.000			27.596			-4.599
230805.000			27.596			-4.599
230904.000			27.596			-4.599
231004.000			27.595			-4.599
231104.000			27.595			-4.599
231204.000			27.595			-4.599
231304.000			27.594			-4.599
231405.000			27.593			-4.599
231504.000			27.594			-4.599
231604.000			27.593			-4.599
231705.000			27.593			-4.599
231804.000			27.594			-4.599
231905.000			27.594			-4.599
232003.000			27.594			-4.599
232104.000			27.593			-4.599
232205.000			27.593			-4.599
232304.000			27.593			-4.599
232404.000			27.593			-4.599
232505.000			27.591			-4.599
232604.000			27.591			-4.599
232704.000			27.591			-4.599
232805.000			27.592			-4.599
232903.000			27.591			-4.599
233004.000			27.591			-4.598
233105.000			27.590			-4.598
233204.000			27.591			-4.598
233304.000			27.590			-4.598
233405.000			27.590			-4.598
233504.000			27.590			-4.598
233604.000			27.589			-4.598
233705.000			27.588			-4.598
233803.000			27.587			-4.598
233904.000			27.588			-4.598
234004.000			27.589			-4.598
234104.000			27.589			-4.598
234204.000			27.589			-4.598
234305.000			27.589			-4.598
234404.000			27.587			-4.598
234504.000			27.587			-4.598
234605.000			27.588			-4.598
234703.000			27.588			-4.598
234804.000			27.587			-4.598
234903.000			27.587			-4.598
235004.000			27.587			-4.598
235105.000			27.587			-4.598
235204.000			27.586			-4.598
235304.000			27.586			-4.598
235405.000			27.585			-4.598
235504.000			27.585			-4.597
235604.000			27.586			-4.598
235705.000			27.587			-4.598
235803.000			27.585			-4.598
235904.000			27.584			-4.597
236005.000			27.584			-4.597
236104.000			27.584			-4.597
236204.000			27.584			-4.597
236305.000			27.584			-4.597
236404.000			27.584			-4.597
236504.000			27.584			-4.597
236605.000			27.583			-4.597
236703.000			27.583			-4.597
236804.000			27.583			-4.597
236904.000			27.583			-4.597
237004.000			27.584			-4.597
237104.000			27.583			-4.597
237205.000			27.582			-4.597
237304.000			27.581			-4.597
237404.000			27.581			-4.597
237505.000			27.580			-4.597
237603.000			27.580			-4.597
237704.000			27.580			-4.597
237804.000			27.579			-4.596
237904.000			27.579			-4.596
238004.000			27.578			-4.596
238104.000			27.578			-4.596
238204.000			27.579			-4.596
238305.000			27.579			-4.596
238404.000			27.579			-4.596
238504.000			27.579			-4.596
238605.000			27.578			-4.596
238703.000			27.578			-4.596
238804.000			27.578			-4.596
238905.000			27.579			-4.596
239004.000			27.578			-4.596
239104.000			27.580			-4.597
239205.000			27.579			-4.596
239304.000			27.578			-4.596
239404.000			27.578			-4.596
239505.000			27.577			-4.596
239604.000			27.577			-4.596
239704.000			27.576			-4.596
239804.000			27.577			-4.596
239904.000			27.577			-4.596
240004.000			27.576			-4.596
240105.000			27.575			-4.596
240204.000			27.574			-4.596
240304.000			27.575			-4.596
240405.000			27.576			-4.596
240504.000			27.574			-4.596
240604.000			27.574			-4.596
240704.000			27.572			-4.595
240804.000			27.573			-4.595
240904.000			27.573			-4.596
241005.000			27.573			-4.596
241104.000			27.573			-4.596
241204.000			27.572			-4.595
241305.000			27.573			-4.595
241404.000			27.573			-4.596
241505.000			27.573			-4.596
241603.000			27.573			-4.595
241704.000			27.572			-4.595
241805.000			27.571			-4.595
241904.000			27.571			-4.595
242004.000			27.571			-4.595
242105.000			27.571			-4.595
242204.000			27.571			-4.595
242304.000			27.570			-4.595
242405.000			27.571			-4.595
242503.000			27.571			-4.595
242604.000			27.571			-4.595
242705.000			27.570			-4.595
242804.000			27.569			-4.595
242904.000			27.568			-4.595
243005.000			27.569			-4.595
243104.000			27.570			-4.595
243204.000			27.569			-4.595
243305.000			27.568			-4.595
243403.000			27.567			-4.595
243504.000			27.568			-4.595
243605.000			27.568			-4.595
243704.000			27.567			-4.595
243804.000			27.567			-4.595
243905.000			27.566			-4.594
244004.000			27.566			-4.594
244104.000			27.567			-4.595
244205.000			27.566			-4.594
244303.000			27.565			-4.594
244404.000			27.566			-4.594
244503.000			27.565			-4.594
244604.000			27.565			-4.594
244705.000			27.565			-4.594
244804.000			27.564			-4.594
244904.000			27.565			-4.594
245005.000			27.565			-4.594
245104.000			27.565			-4.594
245203.000			27.564			-4.594
245305.000			27.564			-4.594
245403.000			27.563			-4.594
245504.000			27.563			-4.594
245605.000			27.563			-4.594
245704.000			27.562			-4.594
245804.000			27.561			-4.594
245905.000			27.561			-4.594
246004.000			27.562			-4.594
246104.000			27.561			-4.594
246205.000			27.562			-4.594
246303.000			27.561			-4.594
246404.000			27.560			-4.593
246505.000			27.561			-4.593
246604.000			27.562			-4.594
246704.000			27.561			-4.593
246805.000			27.561			-4.593
246904.000			27.560			-4.593
247004.000			27.560			-4.593
247105.000			27.560			-4.593
247203.000			27.559			-4.593
247304.000			27.559			-4.593
247405.000			27.559			-4.593
247504.000			27.559			-4.593
247604.000			27.559			-4.593
247704.000			27.558			-4.593
247804.000			27.558			-4.593
247905.000			27.558			-4.593
248004.000			27.558			-4.593
248103.000			27.559			-4.593
248205.000			27.558			-4.593
248303.000			27.557			-4.593
248404.000			27.558			-4.593
248505.000			27.556			-4.593
248604.000			27.556			-4.593
248704.000			27.557			-4.593
248805.000			27.556			-4.593
248904.000			27.556			-4.593
249003.000			27.555			-4.593
249105.000			27.555			-4.592
249203.000			27.556			-4.593
249304.000			27.556			-4.593
249405.000			27.556			-4.593
249504.000			27.555			-4.592
249604.000			27.555			-4.593
249705.000			27.555			-4.592
249804.000			27.554			-4.592
249904.000			27.554			-4.592
250005.000			27.555			-4.592
250103.000			27.555			-4.592
250204.000			27.554			-4.592
250305.000			27.554			-4.592
250404.000			27.552			-4.592
250504.000			27.552			-4.592
250605.000			27.553			-4.592
250704.000			27.552			-4.592
250804.000			27.553			-4.592
250905.000			27.552			-4.592
251003.000			27.552			-4.592
251105.000			27.552			-4.592
251204.000			27.551			-4.592
251304.000			27.552			-4.592
251405.000			27.550			-4.592
251504.000			27.551			-4.592
251604.000			27.551			-4.592
251704.000			27.550			-4.592
251804.000			27.550			-4.592
251903.000			27.550			-4.592
252005.000			27.550			-4.592
252104.000			27.550			-4.592
252204.000			27.549			-4.592
252305.000			27.549			-4.591
252404.000			27.549			-4.591
252504.000			27.548			-4.591
252605.000			27.549			-4.592
252704.000			27.549			-4.591
252803.000			27.548			-4.591
252905.000			27.547			-4.591
253004.000			27.548			-4.591
253104.000			27.548			-4.591
253205.000			27.548			-4.591
253304.000			27.548			-4.591
253404.000			27.547			-4.591
253505.000			27.547			-4.591
253604.000			27.546			-4.591
253703.000			27.547			-4.591
253805.000			27.547			-4.591
253904.000			27.546			-4.591
254004.000			27.546			-4.591
254105.000			27.546			-4.591
254204.000			27.546			-4.591
254305.000			27.546			-4.591
254404.000			27.545			-4.591
254504.000			27.545			-4.591
254604.000			27.544			-4.591
254704.000			27.544			-4.591
254803.000			27.544			-4.591
254905.000			27.544			-4.591
255004.000			27.544			-4.591
255104.000			27.544			-4.591
255205.000			27.544			-4.591
255304.000			27.544			-4.591
255404.000			27.543			-4.591
255504.000			27.543			-4.591
255604.000			27.542			-4.590
255703.000			27.542			-4.590
255805.000			27.542			-4.590
255904.000			27.543			-4.590
256004.000			27.543			-4.590
256105.000			27.542			-4.590
256204.000			27.541			-4.590
256304.000			27.542			-4.590
256404.000			27.541			-4.590
256504.000			27.540			-4.590
256603.000			27.541			-4.590
256705.000			27.541			-4.590
256804.000			27.540			-4.590
256904.000			27.541			-4.590
257005.000			27.541			-4.590
257104.000			27.540			-4.590
257204.000			27.538			-4.590
257303.000			27.539			-4.590
257404.000			27.540			-4.590
257503.000			27.540			-4.590
257604.000			27.538			-4.590
257704.000			27.537			-4.589
257805.000			27.538			-4.590
257904.000			27.539			-4.590
258004.000			27.538			-4.590
258105.000			27.537			-4.589
258204.000			27.537			-4.590
258304.000			27.539			-4.590
258404.000			27.538			-4.590
258504.000			27.537			-4.589
258603.000			27.538			-4.590
258705.000			27.536			-4.589
258804.000			27.536			-4.589
258904.000			27.537			-4.589
259005.000			27.536			-4.589
259104.000			27.536			-4.589
259204.000			27.536			-4.589
259304.000			27.537			-4.589
259404.000			27.535			-4.589
259503.000			27.535			-4.589
259605.000			27.535			-4.589
259704.000			27.534			-4.589
259804.000			27.534			-4.589
259905.000			27.533			-4.589
260004.000			27.534			-4.589
260104.000			27.535			-4.589
260204.000			27.535			-4.589
260304.000			27.534			-4.589
260403.000			27.534			-4.589
260505.000			27.533			-4.589
260604.000			27.533			-4.589
260705.000			27.532			-4.589
260804.000			27.532			-4.589
260904.000			27.532			-4.589
261005.000			27.532			-4.589
261104.000			27.532			-4.589
261204.000			27.532			-4.589
261304.000			27.532			-4.589
261404.000			27.532			-4.589
261504.000			27.533			-4.589
261605.000			27.531			-4.588
261704.000			27.532			-4.589
261804.000			27.531			-4.588
261905.000			27.530			-4.588
262004.000			27.530			-4.588
262104.000			27.531			-4.588
262204.000			27.531			-4.588
262304.000			27.529			-4.588
262404.000			27.530			-4.588
262505.000			27.530			-4.588
262604.000			27.529			-4.588
262704.000			27.528			-4.588
262805.000			27.528			-4.588
262904.000			27.528			-4.588
263004.000			27.528			-4.588
263104.000			27.527			-4.588
263204.000			27.526			-4.588
263304.000			27.527			-4.588
263405.000			27.528			-4.588
263504.000			27.527			-4.588
263604.000			27.527			-4.588
263705.000			27.527			-4.588
263804.000			27.526			-4.588
263905.000			27.527			-4.588
264003.000			27.527			-4.588
264104.000			27.526			-4.588
264205.000			27.526			-4.588
264304.000			27.526			-4.588
264404.000			27.526			-4.588
264505.000			27.525			-4.587
264604.000			27.524			-4.587
264704.000			27.524			-4.587
264805.000			27.524			-4.587
264903.000			27.524			-4.587
265004.000			27.525			-4.587
265105.000			27.525			-4.588
265204.000			27.525			-4.588
265304.000			27.524			-4.587
265405.000			27.523			-4.587
265504.000			27.523			-4.587
265604.000			27.523			-4.587
265705.000			27.523			-4.587
265803.000			27.522			-4.587
265904.000			27.523			-4.587
266005.000			27.522			-4.587
266104.000			27.521			-4.587
266204.000			27.521			-4.587
266305.000			27.521			-4.587
266404.000			27.521			-4.587
266504.000			27.520			-4.587
266605.000			27.520			-4.587
266703.000			27.519			-4.587
266804.000			27.520			-4.587
266905.000			27.521			-4.587
267004.000			27.520			-4.587
267105.000			27.519			-4.587
267204.000			27.520			-4.587
267304.000			27.520			-4.587
267405.000			27.519			-4.586
267504.000			27.518			-4.586
267603.000			27.518			-4.586
267705.000			27.518			-4.586
267804.000			27.518			-4.586
267904.000			27.518			-4.586
268005.000			27.518			-4.586
268104.000			27.518			-4.586
268204.000			27.517			-4.586
268305.000			27.517			-4.586
268404.000			27.517			-4.586
268503.000			27.517			-4.586
268605.000			27.518			-4.586
268703.000			27.517			-4.586
268804.000			27.516			-4.586
268905.000			27.515			-4.586
269004.000			27.516			-4.586
269104.000			27.515			-4.586
269205.000			27.514			-4.586
269304.000			27.515			-4.586
269403.000			27.515			-4.586
269505.000			27.515			-4.586
269603.000			27.514			-4.586
269704.000			27.515			-4.586
269805.000			27.515			-4.586
269904.000			27.513			-4.586
270004.000			27.513			-4.586
270104.000			27.513			-4.586
270204.000			27.513			-4.586
270303.000			27.512			-4.585
270404.000			27.513			-4.585
270503.000			27.513			-4.585
270605.000			27.511			-4.585
270704.000			27.511			-4.585
270804.000			27.512			-4.585
270905.000			27.511			-4.585
271004.000			27.511			-4.585
271104.000			27.512			-4.585
271204.000			27.512			-4.585
271304.000			27.511			-4.585
271404.000			27.510			-4.585
271505.000			27.511			-4.585
271604.000			27.511			-4.585
271704.000			27.510			-4.585
271805.000			27.510			-4.585
271904.000			27.510			-4.585
272004.000			27.510			-4.585
272104.000			27.509			-4.585
272204.000			27.509			-4.585
272304.000			27.510			-4.585
272405.000			27.510			-4.585
272504.000			27.508			-4.585
272604.000			27.508			-4.585
272705.000			27.509			-4.585
272804.000			27.509			-4.585
272904.000			27.507			-4.585
273004.000			27.507			-4.585
273104.000			27.508			-4.585
273204.000			27.508			-4.585
273304.000			27.506			-4.584
273404.000			27.506			-4.584
273505.000			27.506			-4.584
273604.000			27.507			-4.584
273704.000			27.507			-4.585
273805.000			27.507			-4.584
273903.000			27.507			-4.584
274004.000			27.505			-4.584
274104.000			27.505			-4.584
274204.000			27.505			-4.584
274304.000			27.505			-4.584
274405.000			27.505			-4.584
274504.000			27.505			-4.584
274604.000			27.505			-4.584
274705.000			27.504			-4.584
274803.000			27.504			-4.584
274904.000			27.503			-4.584
275005.000			27.504			-4.584
275104.000			27.504			-4.584
275204.000			27.503			-4.584
275305.000			27.503			-4.584
275404.000			27.505			-4.584
275504.000			27.504			-4.584
275605.000			27.503			-4.584
275703.000			27.502			-4.584
275804.000			27.504			-4.584
275904.000			27.502			-4.584
276004.000			27.500			-4.583
276104.000			27.500			-4.583
276205.000			27.501			-4.583
276304.000			27.502			-4.584
276404.000			27.502			-4.584
276505.000			27.501			-4.583
276603.000			27.501			-4.583
276705.000			27.500			-4.583
276803.000			27.500			-4.583
276904.000			27.500			-4.583
277005.000			27.500			-4.583
277104.000			27.501			-4.583
277204.000			27.500			-4.583
277305.000			27.499			-4.583
277404.000			27.500			-4.583
277503.000			27.500			-4.583
277605.000			27.499			-4.583
277703.000			27.499			-4.583
277804.000			27.499			-4.583
277905.000			27.499			-4.583
278004.000			27.498			-4.583
278104.000			27.498			-4.583
278205.000			27.498			-4.583
278304.000			27.498			-4.583
278404.000			27.497			-4.583
278505.000			27.498			-4.583
278603.000			27.498			-4.583
278704.000			27.498			-4.583
278804.000			27.496			-4.583
278904.000			27.497			-4.583
279004.000			27.497			-4.583
279105.000			27.496			-4.583
279204.000			27.496			-4.583
279304.000			27.495			-4.583
279405.000			27.496			-4.583
279504.000			27.496			-4.583
279604.000			27.495			-4.583
279703.000			27.495			-4.582
279804.000			27.495			-4.582
279903.000			27.495			-4.582
280004.000			27.496			-4.583
280104.000			27.495			-4.582
280205.000			27.494			-4.582
280304.000			27.494			-4.582
280404.000			27.493			-4.582
280505.000			27.493			-4.582
280604.000			27.494			-4.582
280704.000			27.494			-4.582
280804.000			27.494			-4.582
280904.000			27.493			-4.582
281004.000			27.493			-4.582
281105.000			27.493			-4.582
281204.000			27.492			-4.582
281304.000			27.493			-4.582
281405.000			27.493			-4.582
281504.000			27.493			-4.582
281604.000			27.492			-4.582
281704.000			27.492			-4.582
281804.000			27.492			-4.582
281904.000			27.491			-4.582
282005.000			27.491			-4.582
282104.000			27.491			-4.582
282204.000			27.491			-4.582
282305.000			27.491			-4.582
282404.000			27.490			-4.582
282504.000			27.490			-4.582
282604.000			27.491			-4.582
282704.000			27.490			-4.582
282804.000			27.490			-4.582
282904.000			27.490			-4.582
283004.000			27.490			-4.582
283105.000			27.491			-4.582
283204.000			27.489			-4.582
283304.000			27.489			-4.582
283405.000			27.488			-4.581
283503.000			27.488			-4.581
283604.000			27.489			-4.581
283705.000			27.487			-4.581
283804.000			27.487			-4.581
283904.000			27.486			-4.581
284005.000			27.488			-4.581
284104.000			27.486			-4.581
284204.000			27.487			-4.581
284305.000			27.487			-4.581
284403.000			27.488			-4.581
284504.000			27.487			-4.581
284604.000			27.486			-4.581
284704.000			27.487			-4.581
284804.000			27.485			-4.581
284905.000			27.485			-4.581
285004.000			27.486			-4.581
285104.000			27.485			-4.581
285205.000			27.485			-4.581
285304.000			27.486			-4.581
285404.000			27.486			-4.581
285504.000			27.485			-4.581
285604.000			27.484			-4.581
285704.000			27.484			-4.581
285805.000			27.484			-4.581
285904.000			27.484			-4.581
286004.000			27.484			-4.581
286105.000			27.483			-4.581
286204.000			27.484			-4.581
286305.000			27.484			-4.581
286403.000			27.484			-4.581
286504.000			27.484			-4.581
286605.000			27.484			-4.581
286704.000			27.483			-4.581
286804.000			27.482			-4.580
286905.000			27.482			-4.580
287004.000			27.481			-4.580
287104.000			27.482			-4.580
287205.000			27.481			-4.580
287303.000			27.481			-4.580
287404.000			27.481			-4.580
287504.000			27.483			-4.580
287604.000			27.482			-4.580
287704.000			27.480			-4.580
287805.000			27.479			-4.580
287904.000			27.479			-4.580
288004.000			27.480			-4.580
288105.000			27.479			-4.580
288204.000			27.479			-4.580
288304.000			27.479			-4.580
288404.000			27.479			-4.580
288504.000			27.479			-4.580
288604.000			27.478			-4.580
288705.000			27.478			-4.580
288804.000			27.479			-4.580
288904.000			27.479			-4.580
289005.000			27.478			-4.580
289104.000			27.476			-4.579
289204.000			27.477			-4.580
289303.000			27.477			-4.580
289404.000			27.477			-4.579
289503.000			27.476			-4.579
289604.000			27.477			-4.579
289704.000			27.476			-4.579
289805.000			27.476			-4.579
289904.000			27.475			-4.579
290004.000			27.475			-4.579
290105.000			27.476			-4.579
290204.000			27.476			-4.579
290304.000			27.476			-4.579
290404.000			27.476			-4.579
290504.000			27.475			-4.579
290604.000			27.475			-4.579
290705.000			27.475			-4.579
290804.000			27.475			-4.579
290904.000			27.475			-4.579
291005.000			27.474			-4.579
291104.000			27.474			-4.579
291204.000			27.474			-4.579
291304.000			27.474			-4.579
291404.000			27.474			-4.579
291504.000			27.473			-4.579
291605.000			27.472			-4.579
291704.000			27.472			-4.579
291804.000			27.472			-4.579
291905.000			27.473			-4.579
292004.000			27.473			-4.579
292104.000			27.472			-4.579
292204.000			27.471			-4.579
292304.000			27.471			-4.579
292404.000			27.473			-4.579
292504.000			27.472			-4.579
292604.000			27.470			-4.578
292705.000			27.470			-4.578
292804.000			27.471			-4.579
292904.000			27.471			-4.579
293005.000			27.471			-4.579
293103.000			27.471			-4.578
293204.000			27.470			-4.578
293304.000			27.471			-4.578
293404.000			27.470			-4.578
293504.000			27.469			-4.578
293605.000			27.468			-4.578
293704.000			27.468			-4.578
293804.000			27.469			-4.578
293905.000			27.469			-4.578
294004.000			27.469			-4.578
294104.000			27.469			-4.578
294204.000			27.468			-4.578
294304.000			27.469			-4.578
294404.000			27.468			-4.578
294505.000			27.467			-4.578
294604.000			27.467			-4.578
294704.000			27.468			-4.578
294805.000			27.468			-4.578
294904.000			27.467			-4.578
295004.000			27.467			-4.578
295104.000			27.467			-4.578
295204.000			27.467			-4.578
295304.000			27.465			-4.577
295405.000			27.464			-4.577
295504.000			27.465			-4.577
295604.000			27.465			-4.578
295705.000			27.466			-4.578
295804.000			27.466			-4.578
295905.000			27.466			-4.578
296003.000			27.465			-4.578
296104.000			27.464			-4.577
296204.000			27.464			-4.577
296304.000			27.464			-4.577
296404.000			27.465			-4.577
296505.000			27.464			-4.577
296604.000			27.464			-4.577
296704.000			27.464			-4.577
296805.000			27.464			-4.577
296904.000			27.464			-4.577
297004.000			27.463			-4.577
297104.000			27.462			-4.577
297204.000			27.464			-4.577
297304.000			27.463			-4.577
297405.000			27.464			-4.577
297504.000			27.463			-4.577
297604.000			27.463			-4.577
297705.000			27.463			-4.577
297804.000			27.463			-4.577
297904.000			27.461			-4.577
298004.000			27.462			-4.577
298104.000			27.462			-4.577
298204.000			27.462			-4.577
298305.000			27.461			-4.577
298404.000			27.460			-4.577
298504.000			27.461			-4.577
298605.000			27.461			-4.577
298704.000			27.461			-4.577
298804.000			27.461			-4.577
298904.000			27.462			-4.577
299004.000			27.461			-4.577
299103.000			27.459			-4.577
299204.000			27.459			-4.577
299304.000			27.459			-4.577
299405.000			27.459			-4.577
299504.000			27.460			-4.577
299604.000			27.460			-4.577
299705.000			27.459			-4.577
299804.000			27.459			-4.576
299904.000			27.458			-4.576
