# Acquired on 26/01/2024 12:02:28 
# SPIDER: Creep_-4mm_HM077x145x38AA-1
# CREEP MEASUREMENT

# time [ms]		force [N]		stiffness [N/mm]
1.000			17.553			-4.388
104.000			18.494			-4.624
204.000			18.786			-4.696
304.000			18.756			-4.689
404.000			18.671			-4.668
505.000			18.640			-4.660
604.000			18.614			-4.654
704.000			18.592			-4.648
805.000			18.573			-4.643
903.000			18.554			-4.638
1004.000			18.536			-4.634
1105.000			18.521			-4.630
1204.000			18.491			-4.623
1304.000			18.478			-4.619
1404.000			18.465			-4.616
1504.000			18.454			-4.613
1604.000			18.442			-4.611
1705.000			18.432			-4.608
1804.000			18.422			-4.606
1904.000			18.403			-4.601
2005.000			18.395			-4.599
2103.000			18.386			-4.596
2204.000			18.377			-4.594
2305.000			18.370			-4.592
2404.000			18.361			-4.590
2504.000			18.352			-4.588
2605.000			18.339			-4.585
2704.000			18.331			-4.583
2803.000			18.325			-4.581
2904.000			18.318			-4.580
3004.000			18.311			-4.578
3105.000			18.305			-4.576
3204.000			18.299			-4.575
3303.000			18.288			-4.572
3405.000			18.282			-4.571
3504.000			18.277			-4.569
3604.000			18.271			-4.568
3705.000			18.266			-4.567
3804.000			18.260			-4.565
3904.000			18.255			-4.564
4004.000			18.251			-4.563
4104.000			18.241			-4.560
4204.000			18.236			-4.559
4305.000			18.232			-4.558
4404.000			18.228			-4.557
4504.000			18.223			-4.556
4605.000			18.218			-4.554
4703.000			18.213			-4.553
4804.000			18.206			-4.551
4905.000			18.202			-4.550
5004.000			18.198			-4.550
5104.000			18.194			-4.549
5204.000			18.191			-4.548
5304.000			18.186			-4.547
5404.000			18.183			-4.546
5505.000			18.176			-4.544
5604.000			18.172			-4.543
5704.000			18.168			-4.542
5805.000			18.165			-4.541
5903.000			18.161			-4.540
6005.000			18.157			-4.539
6104.000			18.155			-4.539
6204.000			18.150			-4.538
6305.000			18.145			-4.536
6404.000			18.141			-4.535
6504.000			18.137			-4.534
6604.000			18.135			-4.534
6704.000			18.132			-4.533
6804.000			18.128			-4.532
6905.000			18.125			-4.531
7004.000			18.121			-4.530
7103.000			18.117			-4.529
7205.000			18.114			-4.529
7304.000			18.112			-4.528
7404.000			18.109			-4.527
7505.000			18.106			-4.527
7604.000			18.104			-4.526
7704.000			18.097			-4.524
7804.000			18.094			-4.524
7904.000			18.092			-4.523
8004.000			18.089			-4.522
8105.000			18.087			-4.522
8204.000			18.085			-4.521
8303.000			18.082			-4.521
8405.000			18.077			-4.519
8504.000			18.075			-4.519
8604.000			18.073			-4.518
8705.000			18.069			-4.517
8804.000			18.067			-4.517
8904.000			18.065			-4.516
9004.000			18.062			-4.515
9104.000			18.060			-4.515
9205.000			18.057			-4.514
9304.000			18.055			-4.514
9404.000			18.051			-4.513
9505.000			18.048			-4.512
9604.000			18.046			-4.512
9703.000			18.045			-4.511
9805.000			18.042			-4.511
9904.000			18.039			-4.510
10004.000			18.037			-4.509
10105.000			18.035			-4.509
10203.000			18.032			-4.508
10304.000			18.029			-4.507
10405.000			18.027			-4.507
10504.000			18.026			-4.507
10604.000			18.023			-4.506
10705.000			18.021			-4.505
10804.000			18.019			-4.505
10903.000			18.016			-4.504
11005.000			18.015			-4.504
11104.000			18.013			-4.503
11204.000			18.011			-4.503
11305.000			18.007			-4.502
11404.000			18.006			-4.502
11504.000			18.004			-4.501
11604.000			18.001			-4.500
11704.000			18.001			-4.500
11804.000			17.999			-4.500
11905.000			17.997			-4.499
12004.000			17.995			-4.499
12104.000			17.992			-4.498
12205.000			17.991			-4.498
12303.000			17.989			-4.497
12405.000			17.986			-4.497
12504.000			17.985			-4.496
12604.000			17.984			-4.496
12705.000			17.981			-4.495
12804.000			17.979			-4.495
12904.000			17.977			-4.494
13004.000			17.975			-4.494
13104.000			17.973			-4.493
13204.000			17.972			-4.493
13305.000			17.969			-4.492
13404.000			17.967			-4.492
13504.000			17.965			-4.491
13605.000			17.964			-4.491
13703.000			17.962			-4.491
13804.000			17.960			-4.490
13905.000			17.958			-4.490
14004.000			17.957			-4.489
14104.000			17.956			-4.489
14205.000			17.953			-4.488
14304.000			17.950			-4.488
14403.000			17.950			-4.487
14505.000			17.948			-4.487
14604.000			17.947			-4.487
14704.000			17.946			-4.486
14805.000			17.944			-4.486
14904.000			17.943			-4.486
15004.000			17.940			-4.485
15104.000			17.939			-4.485
15204.000			17.937			-4.484
15304.000			17.935			-4.484
15405.000			17.934			-4.483
15504.000			17.933			-4.483
15605.000			17.931			-4.483
15704.000			17.928			-4.482
15803.000			17.926			-4.482
15905.000			17.925			-4.481
16004.000			17.923			-4.481
16104.000			17.922			-4.480
16205.000			17.921			-4.480
16304.000			17.920			-4.480
16404.000			17.917			-4.479
16504.000			17.917			-4.479
16604.000			17.915			-4.479
16704.000			17.913			-4.478
16805.000			17.912			-4.478
16904.000			17.910			-4.478
17004.000			17.909			-4.477
17105.000			17.907			-4.477
17203.000			17.905			-4.476
17304.000			17.904			-4.476
17405.000			17.902			-4.475
17504.000			17.901			-4.475
17604.000			17.900			-4.475
17705.000			17.898			-4.475
17804.000			17.897			-4.474
17903.000			17.895			-4.474
18005.000			17.893			-4.473
18104.000			17.891			-4.473
18204.000			17.891			-4.473
18305.000			17.890			-4.472
18404.000			17.889			-4.472
18504.000			17.887			-4.472
18604.000			17.885			-4.471
18704.000			17.884			-4.471
18805.000			17.882			-4.470
18904.000			17.880			-4.470
19004.000			17.880			-4.470
19105.000			17.879			-4.470
19204.000			17.878			-4.469
19303.000			17.875			-4.469
19405.000			17.874			-4.469
19504.000			17.873			-4.468
19604.000			17.873			-4.468
19705.000			17.872			-4.468
19804.000			17.872			-4.468
19904.000			17.871			-4.468
20004.000			17.869			-4.467
20104.000			17.867			-4.467
20204.000			17.866			-4.467
20305.000			17.866			-4.466
20404.000			17.864			-4.466
20504.000			17.863			-4.466
20605.000			17.862			-4.465
20703.000			17.863			-4.466
20804.000			17.860			-4.465
20905.000			17.858			-4.465
21004.000			17.857			-4.464
21104.000			17.855			-4.464
21205.000			17.855			-4.464
21304.000			17.854			-4.464
21403.000			17.853			-4.463
21505.000			17.851			-4.463
21604.000			17.850			-4.463
21704.000			17.850			-4.463
21805.000			17.848			-4.462
21904.000			17.846			-4.462
22005.000			17.845			-4.461
22103.000			17.844			-4.461
22204.000			17.842			-4.460
22305.000			17.842			-4.460
22404.000			17.841			-4.460
22504.000			17.841			-4.460
22605.000			17.839			-4.460
22704.000			17.838			-4.459
22803.000			17.837			-4.459
22905.000			17.836			-4.459
23004.000			17.836			-4.459
23104.000			17.834			-4.459
23205.000			17.832			-4.458
23304.000			17.831			-4.458
23404.000			17.830			-4.458
23504.000			17.828			-4.457
23604.000			17.828			-4.457
23704.000			17.826			-4.456
23805.000			17.825			-4.456
23904.000			17.824			-4.456
24004.000			17.823			-4.456
24105.000			17.822			-4.456
24203.000			17.820			-4.455
24304.000			17.820			-4.455
24405.000			17.818			-4.455
24504.000			17.817			-4.454
24604.000			17.816			-4.454
24704.000			17.815			-4.454
24804.000			17.813			-4.453
24903.000			17.813			-4.453
25005.000			17.812			-4.453
25104.000			17.810			-4.452
25205.000			17.809			-4.452
25304.000			17.808			-4.452
25403.000			17.807			-4.452
25505.000			17.806			-4.451
25604.000			17.804			-4.451
25704.000			17.803			-4.451
25805.000			17.803			-4.451
25904.000			17.802			-4.450
26004.000			17.800			-4.450
26104.000			17.799			-4.450
26204.000			17.799			-4.450
26303.000			17.797			-4.449
26405.000			17.796			-4.449
26504.000			17.796			-4.449
26604.000			17.794			-4.448
26705.000			17.792			-4.448
26804.000			17.790			-4.448
26904.000			17.790			-4.447
27004.000			17.789			-4.447
27104.000			17.789			-4.447
27204.000			17.788			-4.447
27305.000			17.786			-4.447
27404.000			17.786			-4.446
27504.000			17.784			-4.446
27605.000			17.783			-4.446
27703.000			17.783			-4.446
27804.000			17.782			-4.445
27905.000			17.780			-4.445
28004.000			4.918			-1.230
28104.000			-74.564			18.641
28205.000			17.778			-4.444
28304.000			17.777			-4.444
28403.000			17.777			-4.444
28504.000			17.775			-4.444
28604.000			17.774			-4.444
28705.000			17.774			-4.443
28804.000			17.772			-4.443
28904.000			17.770			-4.442
29005.000			17.770			-4.442
29103.000			17.769			-4.442
29204.000			17.769			-4.442
29305.000			17.768			-4.442
29404.000			17.767			-4.442
29504.000			17.765			-4.441
29605.000			17.763			-4.441
29704.000			17.763			-4.441
29803.000			17.762			-4.441
29905.000			17.762			-4.440
30004.000			17.761			-4.440
30104.000			17.761			-4.440
30205.000			17.759			-4.440
30304.000			17.760			-4.440
30404.000			17.759			-4.440
30504.000			17.757			-4.439
30604.000			17.756			-4.439
30704.000			17.756			-4.439
30805.000			17.755			-4.439
30904.000			17.753			-4.438
31004.000			17.753			-4.438
31105.000			17.753			-4.438
31203.000			17.752			-4.438
31304.000			17.751			-4.438
31405.000			17.751			-4.438
31504.000			17.750			-4.437
31605.000			17.748			-4.437
31704.000			17.747			-4.437
31804.000			17.747			-4.437
31904.000			17.746			-4.436
32004.000			17.745			-4.436
32103.000			17.744			-4.436
32205.000			17.744			-4.436
32304.000			17.743			-4.436
32404.000			17.741			-4.435
32505.000			17.741			-4.435
32603.000			17.740			-4.435
32704.000			17.739			-4.435
32805.000			17.739			-4.435
32904.000			17.739			-4.435
33004.000			17.738			-4.434
33105.000			17.735			-4.434
33204.000			17.735			-4.434
33303.000			17.735			-4.434
33405.000			17.734			-4.433
33504.000			17.731			-4.433
33604.000			17.731			-4.433
33705.000			17.731			-4.433
33804.000			17.731			-4.433
33904.000			17.727			-4.432
34004.000			17.727			-4.432
34104.000			17.726			-4.432
34204.000			17.726			-4.431
34305.000			17.726			-4.431
34404.000			17.725			-4.431
34504.000			17.724			-4.431
34605.000			17.723			-4.431
34703.000			17.723			-4.431
34805.000			17.722			-4.431
34904.000			17.721			-4.430
35004.000			17.721			-4.430
35105.000			17.721			-4.430
35204.000			17.720			-4.430
35304.000			17.717			-4.429
35404.000			17.717			-4.429
35504.000			17.717			-4.429
35604.000			17.716			-4.429
35705.000			17.715			-4.429
35804.000			17.714			-4.428
35904.000			17.713			-4.428
36005.000			17.714			-4.428
36103.000			17.712			-4.428
36204.000			17.711			-4.428
36305.000			17.711			-4.428
36404.000			17.711			-4.428
36504.000			17.711			-4.428
36605.000			17.711			-4.428
36704.000			17.710			-4.427
36803.000			17.709			-4.427
36905.000			17.709			-4.427
37004.000			17.708			-4.427
37104.000			17.707			-4.427
37205.000			17.706			-4.426
37304.000			17.706			-4.426
37404.000			17.705			-4.426
37504.000			17.705			-4.426
37604.000			17.704			-4.426
37704.000			17.703			-4.426
37805.000			17.703			-4.426
37904.000			17.703			-4.426
38005.000			17.702			-4.425
38104.000			17.701			-4.425
38203.000			17.701			-4.425
38305.000			17.700			-4.425
38404.000			17.699			-4.425
38504.000			17.699			-4.425
38605.000			17.699			-4.425
38704.000			17.698			-4.425
38804.000			17.697			-4.424
38904.000			17.696			-4.424
39004.000			17.696			-4.424
39104.000			17.696			-4.424
39205.000			17.695			-4.424
39304.000			17.694			-4.424
39404.000			17.694			-4.423
39505.000			17.693			-4.423
39603.000			17.692			-4.423
39704.000			17.691			-4.423
39805.000			17.691			-4.423
39904.000			17.689			-4.422
40004.000			17.688			-4.422
40105.000			17.688			-4.422
40204.000			17.688			-4.422
40303.000			17.688			-4.422
40405.000			17.685			-4.421
40504.000			17.685			-4.421
40604.000			17.685			-4.421
40705.000			17.684			-4.421
40804.000			17.684			-4.421
40904.000			17.682			-4.420
41004.000			17.681			-4.420
41104.000			17.681			-4.420
41205.000			17.681			-4.420
41304.000			17.680			-4.420
41404.000			17.679			-4.420
41505.000			17.679			-4.420
41604.000			17.679			-4.420
41703.000			17.678			-4.420
41805.000			17.677			-4.419
41904.000			17.677			-4.419
42004.000			17.675			-4.419
42105.000			17.675			-4.419
42204.000			17.674			-4.418
42304.000			17.673			-4.418
42404.000			17.673			-4.418
42504.000			17.673			-4.418
42604.000			17.671			-4.418
42705.000			17.672			-4.418
42804.000			17.671			-4.418
42903.000			17.669			-4.417
43005.000			17.668			-4.417
43103.000			17.668			-4.417
43204.000			17.668			-4.417
43305.000			17.667			-4.417
43404.000			17.666			-4.417
43504.000			17.665			-4.416
43604.000			17.665			-4.416
43704.000			17.664			-4.416
43803.000			17.663			-4.416
43905.000			17.663			-4.416
44004.000			17.662			-4.416
44104.000			17.661			-4.415
44205.000			17.661			-4.415
44303.000			17.661			-4.415
44405.000			17.660			-4.415
44504.000			17.659			-4.415
44604.000			17.659			-4.415
44705.000			17.659			-4.415
44804.000			17.659			-4.415
44904.000			17.658			-4.415
45004.000			17.657			-4.414
45104.000			17.657			-4.414
45204.000			17.657			-4.414
45305.000			17.657			-4.414
45404.000			17.655			-4.414
45504.000			17.653			-4.413
45605.000			17.653			-4.413
45703.000			17.652			-4.413
45804.000			17.650			-4.413
45905.000			17.651			-4.413
46004.000			17.651			-4.413
46104.000			17.650			-4.412
46205.000			17.648			-4.412
46304.000			17.647			-4.412
46403.000			17.646			-4.412
46505.000			17.646			-4.412
46604.000			17.646			-4.411
46704.000			17.646			-4.411
46805.000			17.646			-4.411
46904.000			17.645			-4.411
47004.000			17.646			-4.411
47104.000			17.646			-4.411
47204.000			17.645			-4.411
47304.000			17.644			-4.411
47405.000			17.643			-4.411
47504.000			17.643			-4.411
47605.000			17.641			-4.410
47704.000			17.639			-4.410
47803.000			17.639			-4.410
47905.000			17.639			-4.410
48004.000			17.639			-4.410
48104.000			17.638			-4.409
48205.000			17.637			-4.409
48304.000			17.637			-4.409
48404.000			17.635			-4.409
48504.000			17.636			-4.409
48604.000			17.634			-4.409
48703.000			17.633			-4.408
48805.000			17.633			-4.408
48904.000			17.632			-4.408
49004.000			17.632			-4.408
49105.000			17.631			-4.408
49204.000			17.631			-4.408
49304.000			17.632			-4.408
49404.000			17.631			-4.408
49504.000			17.630			-4.408
49604.000			17.630			-4.408
49705.000			17.630			-4.408
49804.000			17.630			-4.408
49904.000			17.630			-4.407
50005.000			17.629			-4.407
50103.000			17.628			-4.407
50204.000			17.629			-4.407
50305.000			17.627			-4.407
50404.000			17.627			-4.407
50504.000			17.627			-4.407
50605.000			17.625			-4.406
50704.000			17.625			-4.406
50803.000			17.624			-4.406
50904.000			17.623			-4.406
51004.000			17.623			-4.406
51105.000			17.622			-4.405
51204.000			17.622			-4.406
51304.000			17.621			-4.405
51405.000			17.621			-4.405
51504.000			17.621			-4.405
51604.000			17.620			-4.405
51705.000			17.620			-4.405
51804.000			17.618			-4.405
51904.000			17.619			-4.405
52004.000			17.618			-4.404
52104.000			17.617			-4.404
52204.000			17.617			-4.404
52305.000			17.617			-4.404
52404.000			17.616			-4.404
52504.000			17.614			-4.404
52605.000			17.614			-4.404
52703.000			17.614			-4.403
52804.000			17.613			-4.403
52905.000			17.612			-4.403
53004.000			17.612			-4.403
53104.000			17.611			-4.403
53205.000			17.611			-4.403
53304.000			17.611			-4.403
53403.000			17.611			-4.403
53505.000			17.608			-4.402
53604.000			17.608			-4.402
53704.000			17.608			-4.402
53805.000			17.608			-4.402
53904.000			17.607			-4.402
54005.000			17.606			-4.401
54103.000			17.606			-4.402
54204.000			17.604			-4.401
54305.000			17.604			-4.401
54404.000			17.603			-4.401
54504.000			17.604			-4.401
54604.000			17.604			-4.401
54704.000			17.603			-4.401
54803.000			17.602			-4.400
54905.000			17.600			-4.400
55004.000			17.601			-4.400
55104.000			17.600			-4.400
55205.000			17.601			-4.400
55303.000			17.600			-4.400
55404.000			17.599			-4.400
55505.000			17.599			-4.400
55604.000			17.598			-4.400
55704.000			17.599			-4.400
55805.000			17.599			-4.400
55904.000			17.598			-4.399
56003.000			17.597			-4.399
56105.000			17.597			-4.399
56204.000			17.597			-4.399
56304.000			17.596			-4.399
56405.000			17.596			-4.399
56504.000			17.595			-4.399
56604.000			17.595			-4.399
56704.000			17.595			-4.399
56804.000			17.595			-4.399
56903.000			17.594			-4.398
57005.000			17.593			-4.398
57104.000			17.593			-4.398
57205.000			17.594			-4.398
57304.000			17.592			-4.398
57404.000			17.592			-4.398
57505.000			17.593			-4.398
57603.000			17.592			-4.398
57704.000			17.591			-4.398
57805.000			17.590			-4.397
57904.000			17.589			-4.397
58004.000			17.589			-4.397
58105.000			17.590			-4.397
58204.000			17.589			-4.397
58303.000			17.587			-4.397
58405.000			17.588			-4.397
58504.000			17.588			-4.397
58604.000			17.587			-4.397
58705.000			17.587			-4.397
58804.000			17.586			-4.396
58904.000			17.585			-4.396
59004.000			17.584			-4.396
59104.000			17.583			-4.396
59204.000			17.583			-4.396
59305.000			17.583			-4.396
59404.000			17.582			-4.395
59504.000			17.581			-4.395
59605.000			17.581			-4.395
59703.000			17.581			-4.395
59804.000			17.579			-4.395
59905.000			17.579			-4.395
60004.000			17.578			-4.395
60104.000			17.578			-4.394
60205.000			17.577			-4.394
60304.000			17.577			-4.394
60403.000			17.576			-4.394
60504.000			17.575			-4.394
60604.000			17.575			-4.394
60705.000			17.574			-4.393
60804.000			17.573			-4.393
60904.000			17.573			-4.393
61005.000			17.572			-4.393
61103.000			17.571			-4.393
61204.000			17.571			-4.393
61305.000			17.570			-4.393
61404.000			17.570			-4.392
61504.000			17.570			-4.393
61605.000			17.569			-4.392
61704.000			17.569			-4.392
61803.000			17.569			-4.392
61905.000			17.567			-4.392
62004.000			17.567			-4.392
62104.000			17.567			-4.392
62205.000			17.566			-4.392
62304.000			17.566			-4.391
62404.000			17.565			-4.391
62504.000			17.566			-4.391
62604.000			17.566			-4.391
62704.000			17.564			-4.391
62805.000			17.563			-4.391
62904.000			17.565			-4.391
63004.000			17.564			-4.391
63105.000			17.563			-4.391
63203.000			17.564			-4.391
63304.000			17.563			-4.391
63405.000			17.562			-4.391
63504.000			17.561			-4.390
63605.000			17.562			-4.390
63704.000			17.562			-4.390
63804.000			17.561			-4.390
63904.000			17.561			-4.390
64004.000			17.560			-4.390
64104.000			17.559			-4.390
64205.000			17.558			-4.390
64304.000			17.559			-4.390
64404.000			17.560			-4.390
64505.000			17.560			-4.390
64603.000			17.559			-4.390
64704.000			17.558			-4.390
64804.000			17.558			-4.389
64904.000			17.558			-4.390
65004.000			17.558			-4.389
65105.000			17.556			-4.389
65204.000			17.556			-4.389
65304.000			17.556			-4.389
65405.000			17.555			-4.389
65503.000			17.555			-4.389
65604.000			17.555			-4.389
65705.000			17.554			-4.389
65804.000			17.554			-4.388
65904.000			17.553			-4.388
66005.000			17.553			-4.388
66104.000			17.552			-4.388
66203.000			17.553			-4.388
66305.000			17.553			-4.388
66404.000			17.551			-4.388
66504.000			17.551			-4.388
66605.000			17.552			-4.388
66704.000			17.551			-4.388
66805.000			17.551			-4.388
66903.000			17.551			-4.388
67004.000			17.549			-4.387
67105.000			17.549			-4.387
67204.000			17.548			-4.387
67304.000			17.548			-4.387
67405.000			17.547			-4.387
67504.000			17.547			-4.387
67603.000			17.546			-4.387
67705.000			17.546			-4.387
67804.000			17.546			-4.387
67904.000			17.546			-4.387
68005.000			17.544			-4.386
68104.000			17.544			-4.386
68204.000			17.544			-4.386
68304.000			17.544			-4.386
68404.000			17.544			-4.386
68504.000			17.543			-4.386
68605.000			17.543			-4.386
68704.000			17.542			-4.385
68804.000			17.542			-4.385
68905.000			17.540			-4.385
69003.000			17.539			-4.385
69104.000			17.539			-4.385
69205.000			17.539			-4.385
69304.000			17.539			-4.385
69404.000			17.538			-4.384
69505.000			17.537			-4.384
69604.000			17.537			-4.384
69703.000			17.536			-4.384
69805.000			17.535			-4.384
69904.000			17.536			-4.384
70005.000			17.537			-4.384
70104.000			17.535			-4.384
70204.000			17.535			-4.384
70305.000			17.534			-4.383
70403.000			17.534			-4.383
70504.000			17.533			-4.383
70605.000			17.534			-4.383
70704.000			17.533			-4.383
70804.000			17.533			-4.383
70905.000			17.532			-4.383
71004.000			17.532			-4.383
71103.000			17.531			-4.383
71205.000			17.530			-4.383
71304.000			17.531			-4.383
71404.000			17.530			-4.382
71505.000			17.529			-4.382
71604.000			17.530			-4.383
71704.000			17.529			-4.382
71804.000			17.528			-4.382
71904.000			17.528			-4.382
72004.000			17.528			-4.382
72105.000			17.528			-4.382
72204.000			17.528			-4.382
72304.000			17.527			-4.382
72405.000			17.527			-4.382
72503.000			17.527			-4.382
72604.000			17.527			-4.382
72705.000			17.527			-4.382
72804.000			17.526			-4.381
72904.000			17.525			-4.381
73005.000			17.525			-4.381
73104.000			17.525			-4.381
73203.000			17.524			-4.381
73304.000			17.524			-4.381
73404.000			17.524			-4.381
73505.000			17.524			-4.381
73604.000			17.524			-4.381
73704.000			17.524			-4.381
73805.000			17.522			-4.380
73903.000			17.521			-4.380
74004.000			17.521			-4.380
74105.000			17.521			-4.380
74204.000			17.520			-4.380
74304.000			17.520			-4.380
74405.000			17.521			-4.380
74504.000			17.519			-4.380
74603.000			17.518			-4.380
74705.000			17.518			-4.379
74804.000			17.519			-4.380
74904.000			17.519			-4.380
75005.000			17.517			-4.379
75104.000			17.518			-4.379
75204.000			17.518			-4.379
75304.000			17.517			-4.379
75404.000			17.516			-4.379
75504.000			17.516			-4.379
75605.000			17.516			-4.379
75704.000			17.516			-4.379
75804.000			17.515			-4.379
75905.000			17.514			-4.379
76003.000			17.514			-4.378
76104.000			17.514			-4.378
76205.000			17.513			-4.378
76304.000			17.513			-4.378
76405.000			17.513			-4.378
76504.000			17.512			-4.378
76604.000			17.511			-4.378
76704.000			17.512			-4.378
76804.000			17.512			-4.378
76904.000			17.512			-4.378
77005.000			17.511			-4.378
77104.000			17.510			-4.378
77204.000			17.510			-4.378
77305.000			17.510			-4.378
77403.000			17.510			-4.378
77504.000			17.508			-4.377
77605.000			17.508			-4.377
77704.000			17.508			-4.377
77804.000			17.507			-4.377
77905.000			17.507			-4.377
78004.000			17.507			-4.377
78103.000			17.506			-4.376
78205.000			17.506			-4.377
78304.000			17.505			-4.376
78404.000			17.505			-4.376
78505.000			17.504			-4.376
78604.000			17.505			-4.376
78704.000			17.505			-4.376
78804.000			17.503			-4.376
78904.000			17.504			-4.376
79004.000			17.504			-4.376
79105.000			17.503			-4.376
79204.000			17.502			-4.376
79304.000			17.502			-4.376
79405.000			17.502			-4.376
79503.000			17.502			-4.376
79605.000			17.502			-4.375
79704.000			17.501			-4.375
79804.000			17.501			-4.375
79905.000			17.500			-4.375
80004.000			17.500			-4.375
80104.000			17.500			-4.375
80204.000			17.499			-4.375
80304.000			17.500			-4.375
80404.000			17.498			-4.374
80505.000			17.498			-4.374
80604.000			17.498			-4.375
80704.000			17.498			-4.374
80805.000			17.497			-4.374
80903.000			17.496			-4.374
81004.000			17.497			-4.374
81105.000			17.495			-4.374
81204.000			17.495			-4.374
81304.000			17.495			-4.374
81405.000			17.495			-4.374
81504.000			17.493			-4.373
81603.000			17.493			-4.373
81705.000			17.493			-4.373
81804.000			17.493			-4.373
81904.000			17.493			-4.373
82005.000			17.492			-4.373
82104.000			17.490			-4.373
82204.000			17.491			-4.373
82304.000			17.490			-4.373
82404.000			17.490			-4.373
82504.000			17.488			-4.372
82605.000			17.489			-4.372
82704.000			17.489			-4.372
82805.000			17.488			-4.372
82904.000			17.487			-4.372
83003.000			17.487			-4.372
83105.000			17.487			-4.372
83204.000			17.486			-4.371
83304.000			17.485			-4.371
83405.000			17.485			-4.371
83504.000			17.485			-4.371
83604.000			17.485			-4.371
83704.000			17.483			-4.371
83804.000			17.483			-4.371
83903.000			17.482			-4.371
84005.000			17.482			-4.370
84104.000			17.481			-4.370
84204.000			17.481			-4.370
84305.000			17.481			-4.370
84403.000			17.481			-4.370
84504.000			17.481			-4.370
84605.000			17.480			-4.370
84704.000			17.479			-4.370
84804.000			17.479			-4.370
84905.000			17.478			-4.369
85004.000			17.478			-4.369
85104.000			17.477			-4.369
85205.000			17.477			-4.369
85303.000			17.475			-4.369
85404.000			17.475			-4.369
85505.000			17.474			-4.369
85604.000			17.474			-4.369
85704.000			17.475			-4.369
85805.000			17.474			-4.368
85904.000			17.473			-4.368
86003.000			17.473			-4.368
86104.000			17.473			-4.368
86204.000			17.472			-4.368
86305.000			17.471			-4.368
86404.000			17.471			-4.368
86504.000			17.471			-4.368
86605.000			17.470			-4.367
86703.000			17.470			-4.368
86804.000			17.471			-4.368
86905.000			17.468			-4.367
87004.000			17.469			-4.367
87104.000			17.469			-4.367
87205.000			17.468			-4.367
87304.000			17.468			-4.367
87403.000			17.468			-4.367
87505.000			17.468			-4.367
87604.000			17.468			-4.367
87704.000			17.468			-4.367
87805.000			17.467			-4.367
87904.000			17.466			-4.367
88004.000			17.465			-4.366
88104.000			17.466			-4.366
88204.000			17.466			-4.366
88303.000			17.465			-4.366
88405.000			17.464			-4.366
88504.000			17.465			-4.366
88604.000			17.466			-4.366
88705.000			17.465			-4.366
88804.000			17.464			-4.366
88904.000			17.464			-4.366
89004.000			17.465			-4.366
89104.000			17.463			-4.366
89205.000			17.463			-4.366
89304.000			17.463			-4.366
89404.000			17.463			-4.366
89505.000			17.463			-4.366
89604.000			17.463			-4.366
89703.000			17.462			-4.365
89805.000			17.462			-4.366
89903.000			17.462			-4.365
90004.000			17.461			-4.365
90105.000			17.460			-4.365
90204.000			17.460			-4.365
90304.000			17.460			-4.365
90405.000			17.460			-4.365
90504.000			17.458			-4.364
90603.000			17.459			-4.365
90705.000			17.459			-4.365
90804.000			17.458			-4.364
90904.000			17.458			-4.364
91005.000			17.457			-4.364
91104.000			17.457			-4.364
91204.000			17.456			-4.364
91304.000			17.455			-4.364
91404.000			17.455			-4.364
91504.000			17.454			-4.364
91605.000			17.454			-4.364
91704.000			17.454			-4.363
91804.000			17.454			-4.363
91905.000			17.454			-4.363
92003.000			17.452			-4.363
92104.000			17.453			-4.363
92205.000			17.453			-4.363
92304.000			17.452			-4.363
92405.000			17.451			-4.363
92504.000			17.451			-4.363
92604.000			17.450			-4.363
92704.000			17.449			-4.362
92804.000			17.450			-4.363
92904.000			17.449			-4.362
93005.000			17.448			-4.362
93104.000			17.449			-4.362
93204.000			17.450			-4.363
93305.000			17.449			-4.362
93403.000			17.448			-4.362
93504.000			17.447			-4.362
93605.000			17.447			-4.362
93704.000			17.447			-4.362
93804.000			17.447			-4.362
93905.000			17.446			-4.362
94004.000			17.447			-4.362
94103.000			17.446			-4.362
94205.000			17.446			-4.361
94304.000			17.446			-4.361
94404.000			17.444			-4.361
94505.000			17.443			-4.361
94604.000			17.444			-4.361
94704.000			17.444			-4.361
94804.000			17.443			-4.361
94904.000			17.444			-4.361
95004.000			17.444			-4.361
95105.000			17.443			-4.361
95204.000			17.443			-4.361
95304.000			17.443			-4.361
95405.000			17.443			-4.361
95503.000			17.443			-4.361
95605.000			17.441			-4.360
95704.000			17.441			-4.360
95804.000			17.442			-4.360
95905.000			17.441			-4.360
96004.000			17.441			-4.360
96104.000			17.440			-4.360
96204.000			17.439			-4.360
96304.000			17.440			-4.360
96404.000			17.438			-4.360
96505.000			17.438			-4.360
96604.000			17.439			-4.360
96704.000			17.438			-4.359
96805.000			17.438			-4.359
96903.000			17.437			-4.359
97004.000			17.437			-4.359
97105.000			17.437			-4.359
97204.000			17.437			-4.359
97304.000			17.436			-4.359
97405.000			17.436			-4.359
97504.000			17.436			-4.359
97603.000			17.436			-4.359
97705.000			17.435			-4.359
97804.000			17.435			-4.359
97904.000			17.434			-4.359
98005.000			17.435			-4.359
98104.000			17.435			-4.359
98204.000			17.433			-4.358
98304.000			17.432			-4.358
98404.000			17.433			-4.358
98503.000			17.432			-4.358
98605.000			17.431			-4.358
98704.000			17.432			-4.358
98805.000			17.432			-4.358
98904.000			17.430			-4.358
99004.000			17.431			-4.358
99105.000			17.432			-4.358
99203.000			17.431			-4.358
99304.000			17.430			-4.358
99405.000			17.429			-4.357
99504.000			17.429			-4.357
99604.000			17.429			-4.357
99705.000			17.430			-4.357
99804.000			17.430			-4.358
99903.000			17.429			-4.357
100005.000			17.428			-4.357
100104.000			17.429			-4.357
100204.000			17.429			-4.357
100305.000			17.427			-4.357
100404.000			17.426			-4.357
100504.000			17.426			-4.357
100604.000			17.426			-4.357
100704.000			17.427			-4.357
100804.000			17.427			-4.357
100905.000			17.425			-4.356
101004.000			17.425			-4.356
101104.000			17.424			-4.356
101205.000			17.425			-4.356
101303.000			17.424			-4.356
101404.000			17.424			-4.356
101505.000			17.423			-4.356
101604.000			17.423			-4.356
101704.000			17.423			-4.356
101805.000			17.423			-4.356
101904.000			17.422			-4.356
102003.000			17.423			-4.356
102104.000			17.422			-4.356
102204.000			17.422			-4.356
102305.000			17.421			-4.355
102404.000			17.422			-4.355
102504.000			17.421			-4.355
102605.000			17.421			-4.355
102703.000			17.421			-4.355
102804.000			17.421			-4.355
102905.000			17.420			-4.355
103004.000			17.420			-4.355
103104.000			17.419			-4.355
103205.000			17.419			-4.355
103304.000			17.418			-4.354
103403.000			17.418			-4.354
103505.000			17.418			-4.355
103604.000			17.418			-4.354
103704.000			17.417			-4.354
103805.000			17.417			-4.354
103904.000			17.417			-4.354
104004.000			17.417			-4.354
104104.000			17.417			-4.354
104204.000			17.417			-4.354
104304.000			17.417			-4.354
104405.000			17.416			-4.354
104504.000			17.416			-4.354
104604.000			17.416			-4.354
104705.000			17.416			-4.354
104803.000			17.415			-4.354
104904.000			17.415			-4.354
105005.000			17.415			-4.354
105104.000			17.415			-4.354
105205.000			17.415			-4.354
105304.000			17.416			-4.354
105404.000			17.414			-4.354
105504.000			17.413			-4.353
105604.000			17.412			-4.353
105704.000			17.412			-4.353
105805.000			17.412			-4.353
105904.000			17.411			-4.353
106004.000			17.411			-4.353
106105.000			17.411			-4.353
106203.000			17.411			-4.353
106304.000			17.410			-4.352
106405.000			17.409			-4.352
106504.000			17.410			-4.353
106604.000			17.410			-4.353
106705.000			17.410			-4.352
106804.000			17.409			-4.352
106903.000			17.409			-4.352
107005.000			17.410			-4.352
107104.000			17.409			-4.352
107204.000			17.409			-4.352
107305.000			17.410			-4.352
107404.000			17.409			-4.352
107504.000			17.409			-4.352
107604.000			17.410			-4.352
107704.000			17.410			-4.353
107804.000			17.410			-4.353
107905.000			17.410			-4.352
108004.000			17.409			-4.352
108104.000			17.410			-4.352
108205.000			17.410			-4.352
108303.000			17.410			-4.353
108405.000			17.411			-4.353
108503.000			17.410			-4.352
108604.000			17.410			-4.352
108705.000			17.408			-4.352
108804.000			17.409			-4.352
108904.000			17.410			-4.352
109005.000			17.409			-4.352
109104.000			17.409			-4.352
109203.000			17.408			-4.352
109305.000			17.408			-4.352
109404.000			17.408			-4.352
109504.000			17.408			-4.352
109605.000			17.407			-4.352
109704.000			17.407			-4.352
109804.000			17.407			-4.352
109904.000			17.407			-4.352
110004.000			17.406			-4.352
110104.000			17.405			-4.351
110205.000			17.405			-4.351
110304.000			17.406			-4.351
110404.000			17.405			-4.351
110505.000			17.405			-4.351
110603.000			17.405			-4.351
110704.000			17.404			-4.351
110805.000			17.404			-4.351
110904.000			17.403			-4.351
111004.000			17.403			-4.351
111105.000			17.404			-4.351
111204.000			17.403			-4.351
111303.000			17.403			-4.351
111405.000			17.404			-4.351
111504.000			17.403			-4.351
111605.000			17.402			-4.351
111704.000			17.402			-4.350
111804.000			17.402			-4.351
111905.000			17.403			-4.351
112003.000			17.403			-4.351
112104.000			17.401			-4.350
112205.000			17.401			-4.350
112304.000			17.402			-4.350
112404.000			17.402			-4.350
112505.000			17.402			-4.350
112604.000			17.401			-4.350
112703.000			17.401			-4.350
112805.000			17.401			-4.350
112904.000			17.400			-4.350
113004.000			17.400			-4.350
113105.000			17.400			-4.350
113204.000			17.399			-4.350
113304.000			17.400			-4.350
113404.000			17.400			-4.350
113504.000			17.400			-4.350
113604.000			17.399			-4.350
113705.000			17.399			-4.350
113804.000			17.399			-4.350
113904.000			17.399			-4.350
114005.000			17.398			-4.350
114104.000			17.399			-4.350
114204.000			17.398			-4.350
114304.000			17.398			-4.349
114404.000			17.397			-4.349
114504.000			17.398			-4.350
114605.000			17.397			-4.349
114704.000			17.396			-4.349
114805.000			17.397			-4.349
114904.000			17.398			-4.350
115003.000			17.396			-4.349
115105.000			17.395			-4.349
115204.000			17.397			-4.349
115304.000			17.396			-4.349
115405.000			17.396			-4.349
115504.000			17.396			-4.349
115604.000			17.395			-4.349
115704.000			17.395			-4.349
115804.000			17.395			-4.349
115904.000			17.395			-4.349
116005.000			17.394			-4.349
116104.000			17.394			-4.348
116204.000			17.394			-4.348
116305.000			17.394			-4.348
116404.000			17.393			-4.348
116504.000			17.393			-4.348
116604.000			17.392			-4.348
116704.000			17.392			-4.348
116804.000			17.392			-4.348
116905.000			17.392			-4.348
117004.000			17.392			-4.348
117104.000			17.393			-4.348
117205.000			17.393			-4.348
117303.000			17.391			-4.348
117404.000			17.390			-4.348
117505.000			17.389			-4.347
117604.000			17.389			-4.347
117704.000			17.389			-4.347
117805.000			17.388			-4.347
117904.000			17.389			-4.347
118003.000			17.389			-4.347
118104.000			17.388			-4.347
118203.000			17.388			-4.347
118305.000			17.387			-4.347
118404.000			17.388			-4.347
118504.000			17.387			-4.347
118605.000			17.387			-4.347
118704.000			17.386			-4.346
118804.000			17.386			-4.346
118904.000			17.386			-4.346
119004.000			17.385			-4.346
119104.000			17.385			-4.346
119205.000			17.386			-4.346
119304.000			17.386			-4.347
119404.000			17.386			-4.346
119505.000			17.385			-4.346
119604.000			17.384			-4.346
119704.000			17.384			-4.346
119804.000			17.384			-4.346
119904.000			17.383			-4.346
120004.000			17.382			-4.346
120105.000			17.382			-4.345
120204.000			17.382			-4.345
120304.000			17.382			-4.346
120405.000			17.382			-4.345
120503.000			17.381			-4.345
120604.000			17.382			-4.346
120705.000			17.381			-4.345
120804.000			17.380			-4.345
120904.000			17.379			-4.345
121005.000			17.380			-4.345
121104.000			17.379			-4.345
121203.000			17.378			-4.344
121304.000			17.378			-4.345
121404.000			17.377			-4.344
121505.000			17.376			-4.344
121604.000			17.377			-4.344
121704.000			17.377			-4.344
121805.000			17.376			-4.344
121903.000			17.375			-4.344
122004.000			17.375			-4.344
122105.000			17.375			-4.344
122204.000			17.375			-4.344
122304.000			17.375			-4.344
122405.000			17.375			-4.344
122504.000			17.372			-4.343
122604.000			17.372			-4.343
122705.000			17.372			-4.343
122803.000			17.373			-4.343
122904.000			17.371			-4.343
123005.000			17.371			-4.343
123104.000			17.371			-4.343
123204.000			17.370			-4.343
123305.000			17.370			-4.342
123404.000			17.369			-4.342
123503.000			17.370			-4.343
123605.000			17.369			-4.342
123704.000			17.369			-4.342
123804.000			17.368			-4.342
123905.000			17.368			-4.342
124004.000			17.367			-4.342
124104.000			17.367			-4.342
124204.000			17.367			-4.342
124304.000			17.367			-4.342
124405.000			17.366			-4.341
124504.000			17.366			-4.341
124604.000			17.366			-4.341
124705.000			17.366			-4.341
124804.000			17.365			-4.341
124903.000			17.365			-4.341
125005.000			17.365			-4.341
125104.000			17.364			-4.341
125204.000			17.364			-4.341
125305.000			17.365			-4.341
125404.000			17.364			-4.341
125504.000			17.364			-4.341
125605.000			17.364			-4.341
125704.000			17.364			-4.341
125803.000			17.364			-4.341
125905.000			17.364			-4.341
126004.000			17.364			-4.341
126104.000			17.364			-4.341
126205.000			17.363			-4.341
126304.000			17.363			-4.341
126404.000			17.363			-4.341
126504.000			17.364			-4.341
126604.000			17.362			-4.341
126704.000			17.363			-4.341
126805.000			17.363			-4.341
126904.000			17.363			-4.341
127004.000			17.362			-4.341
127105.000			17.362			-4.341
127204.000			17.362			-4.340
127304.000			17.362			-4.340
127404.000			17.363			-4.341
127504.000			17.362			-4.340
127605.000			17.361			-4.340
127704.000			17.361			-4.340
127804.000			17.362			-4.340
127905.000			17.362			-4.341
128004.000			17.361			-4.340
128103.000			17.361			-4.340
128205.000			17.361			-4.340
128304.000			17.360			-4.340
128404.000			17.361			-4.340
128505.000			17.361			-4.340
128604.000			17.361			-4.340
128704.000			17.361			-4.340
128804.000			17.360			-4.340
128904.000			17.359			-4.340
129004.000			17.360			-4.340
129105.000			17.360			-4.340
129204.000			17.359			-4.340
129304.000			17.359			-4.340
129405.000			17.359			-4.340
129504.000			17.358			-4.340
129604.000			17.358			-4.339
129704.000			17.358			-4.339
129804.000			17.358			-4.340
129904.000			17.358			-4.339
130005.000			17.358			-4.339
130104.000			17.357			-4.339
130204.000			17.357			-4.339
130305.000			17.356			-4.339
130403.000			17.357			-4.339
130504.000			17.357			-4.339
130605.000			17.357			-4.339
130704.000			17.357			-4.339
130805.000			17.357			-4.339
130904.000			17.357			-4.339
131004.000			17.356			-4.339
131104.000			17.354			-4.338
131204.000			17.354			-4.339
131303.000			17.354			-4.338
131405.000			17.354			-4.338
131504.000			17.354			-4.338
131604.000			17.354			-4.338
131705.000			17.354			-4.339
131804.000			17.353			-4.338
131904.000			17.352			-4.338
132004.000			17.351			-4.338
132104.000			17.351			-4.338
132204.000			17.352			-4.338
132305.000			17.352			-4.338
132404.000			17.351			-4.338
132504.000			17.350			-4.337
132605.000			17.350			-4.337
132704.000			17.348			-4.337
132804.000			17.348			-4.337
132904.000			17.349			-4.337
133004.000			17.349			-4.337
133104.000			17.348			-4.337
133205.000			17.348			-4.337
133304.000			17.347			-4.337
133404.000			17.346			-4.337
133505.000			17.346			-4.336
133604.000			17.345			-4.336
133704.000			17.345			-4.336
133804.000			17.345			-4.336
133904.000			17.345			-4.336
134005.000			17.344			-4.336
134104.000			17.344			-4.336
134204.000			17.344			-4.336
134305.000			17.344			-4.336
134404.000			17.344			-4.336
134504.000			17.342			-4.336
134605.000			17.343			-4.336
134703.000			17.343			-4.336
134804.000			17.341			-4.335
134905.000			17.343			-4.336
135004.000			17.343			-4.336
135104.000			17.342			-4.335
135205.000			17.342			-4.336
135304.000			17.342			-4.335
135404.000			17.341			-4.335
135505.000			17.341			-4.335
135603.000			17.340			-4.335
135704.000			17.339			-4.335
135805.000			17.339			-4.335
135904.000			17.339			-4.335
136004.000			17.340			-4.335
136105.000			17.340			-4.335
136204.000			17.338			-4.335
136304.000			17.339			-4.335
136405.000			17.339			-4.335
136503.000			17.339			-4.335
136604.000			17.338			-4.334
136705.000			17.337			-4.334
136804.000			17.337			-4.334
136904.000			17.337			-4.334
137005.000			17.337			-4.334
137104.000			17.338			-4.334
137205.000			17.337			-4.334
137304.000			17.336			-4.334
137403.000			17.335			-4.334
137505.000			17.335			-4.334
137604.000			17.336			-4.334
137704.000			17.335			-4.334
137805.000			17.335			-4.334
137904.000			17.335			-4.334
138004.000			17.334			-4.334
138105.000			17.334			-4.333
138204.000			17.334			-4.333
138303.000			17.333			-4.333
138405.000			17.334			-4.333
138504.000			17.333			-4.333
138604.000			17.332			-4.333
138705.000			17.331			-4.333
138804.000			17.332			-4.333
138904.000			17.333			-4.333
139005.000			17.332			-4.333
139104.000			17.332			-4.333
139203.000			17.331			-4.333
139305.000			17.332			-4.333
139404.000			17.331			-4.333
139504.000			17.332			-4.333
139605.000			17.331			-4.333
139704.000			17.330			-4.333
139804.000			17.331			-4.333
139904.000			17.330			-4.332
140004.000			17.329			-4.332
140103.000			17.330			-4.333
140205.000			17.330			-4.333
140304.000			17.330			-4.332
140405.000			17.330			-4.332
140504.000			17.328			-4.332
140604.000			17.328			-4.332
140705.000			17.329			-4.332
140803.000			17.328			-4.332
140904.000			17.328			-4.332
141005.000			17.328			-4.332
141104.000			17.327			-4.332
141204.000			17.327			-4.332
141305.000			17.326			-4.332
141404.000			17.327			-4.332
141504.000			17.326			-4.332
141605.000			17.326			-4.332
141703.000			17.327			-4.332
141804.000			17.327			-4.332
141905.000			17.327			-4.332
142004.000			17.326			-4.331
142104.000			17.325			-4.331
142205.000			17.325			-4.331
142304.000			17.325			-4.331
142404.000			17.325			-4.331
142505.000			17.325			-4.331
142603.000			17.325			-4.331
142704.000			17.324			-4.331
142805.000			17.325			-4.331
142904.000			17.324			-4.331
143004.000			17.324			-4.331
143105.000			17.323			-4.331
143204.000			17.322			-4.331
143303.000			17.322			-4.331
143405.000			17.322			-4.331
143503.000			17.322			-4.331
143605.000			17.321			-4.330
143704.000			17.321			-4.330
143804.000			17.321			-4.330
143905.000			17.321			-4.330
144004.000			17.321			-4.330
144104.000			17.321			-4.330
144204.000			17.321			-4.330
144304.000			17.320			-4.330
144404.000			17.320			-4.330
144505.000			17.321			-4.330
144604.000			17.320			-4.330
144704.000			17.319			-4.330
144805.000			17.319			-4.330
144904.000			17.319			-4.330
145004.000			17.318			-4.330
145104.000			17.319			-4.330
145204.000			17.319			-4.330
145304.000			17.318			-4.330
145405.000			17.318			-4.329
145504.000			17.318			-4.329
145604.000			17.317			-4.329
145705.000			17.317			-4.329
145804.000			17.317			-4.329
145904.000			17.317			-4.329
146004.000			17.318			-4.329
146104.000			17.319			-4.330
146204.000			17.318			-4.329
146305.000			17.317			-4.329
146404.000			17.317			-4.329
146504.000			17.317			-4.329
146605.000			17.317			-4.329
146704.000			17.317			-4.329
146805.000			17.317			-4.329
146903.000			17.316			-4.329
147004.000			17.317			-4.329
147105.000			17.317			-4.329
147204.000			17.318			-4.330
147304.000			17.318			-4.329
147405.000			17.318			-4.329
147504.000			17.318			-4.329
147604.000			17.318			-4.329
147705.000			17.317			-4.329
147803.000			17.317			-4.329
147904.000			17.318			-4.329
148004.000			17.318			-4.329
148104.000			17.317			-4.329
148204.000			17.318			-4.329
148305.000			17.319			-4.330
148404.000			17.318			-4.330
148504.000			17.317			-4.329
148605.000			17.316			-4.329
148703.000			17.316			-4.329
148804.000			17.316			-4.329
148905.000			17.316			-4.329
149004.000			17.317			-4.329
149104.000			17.317			-4.329
149205.000			17.315			-4.329
149304.000			17.316			-4.329
149404.000			17.317			-4.329
149505.000			17.315			-4.329
149603.000			17.315			-4.329
149704.000			17.315			-4.329
149805.000			17.316			-4.329
149904.000			17.316			-4.329
150005.000			17.316			-4.329
150104.000			17.315			-4.329
150204.000			17.315			-4.329
150305.000			17.315			-4.329
150404.000			17.314			-4.328
150503.000			17.314			-4.329
150605.000			17.315			-4.329
150704.000			17.314			-4.328
150804.000			17.314			-4.329
150905.000			17.314			-4.329
151004.000			17.314			-4.328
151104.000			17.314			-4.328
151204.000			17.313			-4.328
151304.000			17.312			-4.328
151403.000			17.312			-4.328
151505.000			17.312			-4.328
151604.000			17.312			-4.328
151704.000			17.310			-4.328
151805.000			17.311			-4.328
151904.000			17.311			-4.328
152004.000			17.310			-4.328
152104.000			17.309			-4.327
152204.000			17.310			-4.327
152304.000			17.309			-4.327
152405.000			17.309			-4.327
152504.000			17.309			-4.327
152604.000			17.309			-4.327
152705.000			17.308			-4.327
152804.000			17.308			-4.327
152904.000			17.308			-4.327
153004.000			17.309			-4.327
153104.000			17.308			-4.327
153205.000			17.308			-4.327
153304.000			17.309			-4.327
153404.000			17.309			-4.327
153505.000			17.308			-4.327
153604.000			17.308			-4.327
153704.000			17.308			-4.327
153805.000			17.308			-4.327
153903.000			17.308			-4.327
154004.000			17.307			-4.327
154105.000			17.308			-4.327
154204.000			17.308			-4.327
154304.000			17.308			-4.327
154405.000			17.307			-4.327
154504.000			17.308			-4.327
154604.000			17.308			-4.327
154705.000			17.308			-4.327
154803.000			17.308			-4.327
154904.000			17.307			-4.327
155005.000			17.308			-4.327
155104.000			17.308			-4.327
155204.000			17.307			-4.327
155305.000			17.307			-4.327
155404.000			17.307			-4.327
155504.000			17.307			-4.327
155605.000			17.306			-4.326
155703.000			17.306			-4.326
155804.000			17.305			-4.326
155905.000			17.306			-4.326
156004.000			17.306			-4.326
156104.000			17.306			-4.326
156205.000			17.306			-4.326
156304.000			17.305			-4.326
156403.000			17.305			-4.326
156504.000			17.306			-4.326
156603.000			17.305			-4.326
156705.000			17.305			-4.326
156804.000			17.305			-4.326
156904.000			17.305			-4.326
157005.000			17.305			-4.326
157104.000			17.305			-4.326
157204.000			17.304			-4.326
157304.000			17.303			-4.326
157404.000			17.304			-4.326
157503.000			17.304			-4.326
157605.000			17.303			-4.326
157704.000			17.303			-4.326
157804.000			17.302			-4.326
157905.000			17.302			-4.325
158004.000			17.301			-4.325
158104.000			17.301			-4.325
158204.000			17.300			-4.325
158304.000			17.299			-4.325
158404.000			17.299			-4.325
158505.000			17.299			-4.325
158604.000			17.299			-4.325
158704.000			17.299			-4.325
158805.000			17.298			-4.324
158904.000			17.298			-4.324
159004.000			17.297			-4.324
159104.000			17.297			-4.324
159204.000			17.296			-4.324
159303.000			17.296			-4.324
159405.000			17.295			-4.324
159504.000			17.294			-4.324
159605.000			17.296			-4.324
159704.000			17.295			-4.324
159804.000			17.295			-4.324
159905.000			17.295			-4.324
160004.000			17.294			-4.324
160104.000			17.293			-4.323
160204.000			17.293			-4.323
160304.000			17.292			-4.323
160404.000			17.291			-4.323
160505.000			17.291			-4.323
160604.000			17.291			-4.323
160704.000			17.291			-4.323
160805.000			17.292			-4.323
160904.000			17.290			-4.323
161004.000			17.291			-4.323
161104.000			17.290			-4.323
161204.000			17.290			-4.322
161304.000			17.290			-4.323
161405.000			17.289			-4.322
161504.000			17.289			-4.322
161604.000			17.290			-4.322
161705.000			17.289			-4.322
161804.000			17.288			-4.322
161904.000			17.289			-4.322
162004.000			17.288			-4.322
162104.000			17.287			-4.322
162204.000			17.288			-4.322
162305.000			17.288			-4.322
162404.000			17.287			-4.322
162504.000			17.286			-4.322
162605.000			17.287			-4.322
162704.000			17.286			-4.322
162805.000			17.286			-4.321
162903.000			17.287			-4.322
163004.000			17.286			-4.322
163105.000			17.286			-4.321
163204.000			17.288			-4.322
163304.000			17.288			-4.322
163405.000			17.287			-4.322
163504.000			17.287			-4.322
163604.000			17.287			-4.322
163705.000			17.287			-4.322
163803.000			17.287			-4.322
163904.000			17.287			-4.322
164004.000			17.288			-4.322
164104.000			17.287			-4.322
164204.000			17.287			-4.322
164305.000			17.286			-4.321
164404.000			17.286			-4.321
164504.000			17.286			-4.321
164605.000			17.287			-4.322
164703.000			17.287			-4.322
164804.000			17.286			-4.321
164904.000			17.285			-4.321
165004.000			17.284			-4.321
165104.000			17.285			-4.321
165205.000			17.284			-4.321
165304.000			17.283			-4.321
165404.000			17.283			-4.321
165505.000			17.283			-4.321
165604.000			17.283			-4.321
165704.000			17.283			-4.321
165804.000			17.283			-4.321
165904.000			17.283			-4.321
166005.000			17.282			-4.321
166104.000			17.282			-4.320
166204.000			17.281			-4.320
166305.000			17.280			-4.320
166404.000			17.280			-4.320
166504.000			17.281			-4.320
166605.000			17.281			-4.320
166703.000			17.280			-4.320
166804.000			17.281			-4.320
166905.000			17.281			-4.320
167004.000			17.280			-4.320
167104.000			17.280			-4.320
167205.000			17.280			-4.320
167304.000			17.281			-4.320
167404.000			17.281			-4.320
167505.000			17.281			-4.320
167603.000			17.282			-4.320
167704.000			17.281			-4.320
167805.000			17.281			-4.320
167904.000			17.281			-4.320
168004.000			17.281			-4.320
168105.000			17.280			-4.320
168204.000			17.281			-4.320
168304.000			17.280			-4.320
168405.000			17.280			-4.320
168503.000			17.279			-4.320
168604.000			17.278			-4.320
168704.000			17.279			-4.320
168804.000			17.279			-4.320
168904.000			17.278			-4.320
169005.000			17.278			-4.319
169104.000			17.278			-4.320
169205.000			17.279			-4.320
169304.000			17.278			-4.320
169404.000			17.278			-4.320
169505.000			17.278			-4.319
169603.000			17.278			-4.320
169704.000			17.277			-4.319
169805.000			17.277			-4.319
169904.000			17.277			-4.319
170004.000			17.277			-4.319
170105.000			17.276			-4.319
170204.000			17.277			-4.319
170304.000			17.277			-4.319
170405.000			17.276			-4.319
170503.000			17.277			-4.319
170604.000			17.276			-4.319
170705.000			17.276			-4.319
170804.000			17.275			-4.319
170904.000			17.276			-4.319
171005.000			17.276			-4.319
171104.000			17.276			-4.319
171204.000			17.275			-4.319
171305.000			17.275			-4.319
171403.000			17.276			-4.319
171504.000			17.276			-4.319
171605.000			17.276			-4.319
171704.000			17.276			-4.319
171804.000			17.275			-4.319
171905.000			17.274			-4.319
172004.000			17.274			-4.319
172104.000			17.275			-4.319
172205.000			17.275			-4.319
172303.000			17.274			-4.318
172405.000			17.273			-4.318
172504.000			17.273			-4.318
172604.000			17.273			-4.318
172705.000			17.273			-4.318
172804.000			17.272			-4.318
172904.000			17.272			-4.318
173005.000			17.272			-4.318
173104.000			17.272			-4.318
173203.000			17.272			-4.318
173305.000			17.271			-4.318
173404.000			17.271			-4.318
173504.000			17.270			-4.317
173605.000			17.270			-4.318
173704.000			17.272			-4.318
173804.000			17.271			-4.318
173905.000			17.270			-4.318
174004.000			17.269			-4.317
174103.000			17.270			-4.318
174205.000			17.269			-4.317
174304.000			17.268			-4.317
174404.000			17.269			-4.317
174505.000			17.268			-4.317
174604.000			17.268			-4.317
174704.000			17.268			-4.317
174805.000			17.268			-4.317
174904.000			17.269			-4.317
175003.000			17.268			-4.317
175105.000			17.268			-4.317
175204.000			17.267			-4.317
175304.000			17.267			-4.317
175405.000			17.267			-4.317
175504.000			17.267			-4.317
175605.000			17.265			-4.316
175704.000			17.265			-4.316
175804.000			17.266			-4.316
175904.000			17.265			-4.316
176004.000			17.265			-4.316
176103.000			17.265			-4.316
176205.000			17.266			-4.316
176304.000			17.264			-4.316
176404.000			17.264			-4.316
176505.000			17.264			-4.316
176604.000			17.264			-4.316
176704.000			17.263			-4.316
176804.000			17.262			-4.316
176904.000			17.263			-4.316
177003.000			17.263			-4.316
177105.000			17.262			-4.316
177204.000			17.260			-4.315
177304.000			17.260			-4.315
177405.000			17.261			-4.315
177504.000			17.262			-4.316
177604.000			17.262			-4.315
177704.000			17.261			-4.315
177804.000			17.261			-4.315
177903.000			17.261			-4.315
178005.000			17.261			-4.315
178104.000			17.260			-4.315
178204.000			17.261			-4.315
178305.000			17.261			-4.315
178404.000			17.260			-4.315
178504.000			17.262			-4.315
178604.000			17.261			-4.315
178704.000			17.260			-4.315
178803.000			17.261			-4.315
178904.000			17.261			-4.315
179004.000			17.260			-4.315
179105.000			17.261			-4.315
179204.000			17.261			-4.315
179304.000			17.260			-4.315
179405.000			17.260			-4.315
179503.000			17.259			-4.315
179604.000			17.259			-4.315
179704.000			17.259			-4.315
179804.000			17.259			-4.315
179904.000			17.259			-4.315
180005.000			17.259			-4.315
180104.000			17.260			-4.315
180204.000			17.259			-4.315
180305.000			17.259			-4.315
180404.000			17.259			-4.315
180504.000			17.258			-4.315
180604.000			17.259			-4.315
180704.000			17.259			-4.315
180804.000			17.258			-4.314
180905.000			17.258			-4.314
181004.000			17.257			-4.314
181104.000			17.257			-4.314
181205.000			17.257			-4.314
181304.000			17.257			-4.314
181404.000			17.257			-4.314
181504.000			17.256			-4.314
181604.000			17.256			-4.314
181704.000			17.256			-4.314
181805.000			17.256			-4.314
181904.000			17.256			-4.314
182005.000			17.254			-4.313
182104.000			17.254			-4.314
182204.000			17.255			-4.314
182305.000			17.254			-4.313
182403.000			17.254			-4.314
182504.000			17.254			-4.313
182605.000			17.254			-4.313
182704.000			17.255			-4.314
182804.000			17.254			-4.314
182905.000			17.254			-4.313
183004.000			17.253			-4.313
183103.000			17.253			-4.313
183205.000			17.253			-4.313
183303.000			17.253			-4.313
183404.000			17.252			-4.313
183505.000			17.252			-4.313
183604.000			17.252			-4.313
183704.000			17.252			-4.313
183805.000			17.253			-4.313
183904.000			17.252			-4.313
184003.000			17.252			-4.313
184105.000			17.252			-4.313
184203.000			17.252			-4.313
184304.000			17.253			-4.313
184405.000			17.253			-4.313
184504.000			17.253			-4.313
184604.000			17.253			-4.313
184705.000			17.252			-4.313
184804.000			17.252			-4.313
184903.000			17.252			-4.313
185005.000			17.253			-4.313
185103.000			17.253			-4.313
185205.000			17.253			-4.313
185304.000			17.253			-4.313
185404.000			17.253			-4.313
185505.000			17.252			-4.313
185604.000			17.252			-4.313
185704.000			17.252			-4.313
185804.000			17.251			-4.313
185904.000			17.251			-4.313
186003.000			17.251			-4.313
186105.000			17.251			-4.313
186204.000			17.251			-4.313
186304.000			17.250			-4.313
186405.000			17.250			-4.312
186504.000			17.249			-4.312
186604.000			17.248			-4.312
186705.000			17.249			-4.312
186804.000			17.250			-4.312
186903.000			17.249			-4.312
187005.000			17.248			-4.312
187104.000			17.248			-4.312
187204.000			17.247			-4.312
187305.000			17.247			-4.312
187404.000			17.248			-4.312
187504.000			17.248			-4.312
187605.000			17.247			-4.312
187704.000			17.246			-4.312
187803.000			17.245			-4.311
187905.000			17.245			-4.311
188004.000			17.245			-4.311
188104.000			17.245			-4.311
188205.000			17.245			-4.311
188304.000			17.245			-4.311
188405.000			17.245			-4.311
188504.000			17.244			-4.311
188604.000			17.245			-4.311
188704.000			17.245			-4.311
188804.000			17.244			-4.311
188903.000			17.244			-4.311
189005.000			17.244			-4.311
189104.000			17.245			-4.311
189204.000			17.245			-4.311
189305.000			17.245			-4.311
189404.000			17.245			-4.311
189504.000			17.245			-4.311
189604.000			17.244			-4.311
189704.000			17.244			-4.311
189803.000			17.245			-4.311
189905.000			17.246			-4.311
190004.000			17.245			-4.311
190104.000			17.244			-4.311
190205.000			17.244			-4.311
190304.000			17.244			-4.311
190404.000			17.244			-4.311
190504.000			17.245			-4.311
190604.000			17.244			-4.311
190703.000			17.244			-4.311
190805.000			17.243			-4.311
190904.000			17.244			-4.311
191004.000			17.245			-4.311
191105.000			17.244			-4.311
191204.000			17.245			-4.311
191304.000			17.245			-4.311
191404.000			17.244			-4.311
191504.000			17.244			-4.311
191603.000			17.243			-4.311
191704.000			17.242			-4.311
191804.000			17.243			-4.311
191905.000			17.243			-4.311
192004.000			17.243			-4.311
192104.000			17.242			-4.311
192205.000			17.242			-4.311
192303.000			17.242			-4.311
192404.000			17.242			-4.310
192504.000			17.241			-4.310
192604.000			17.240			-4.310
192704.000			17.241			-4.310
192805.000			17.242			-4.310
192904.000			17.240			-4.310
193004.000			17.240			-4.310
193105.000			17.240			-4.310
193203.000			17.239			-4.310
193304.000			17.239			-4.310
193405.000			17.239			-4.310
193504.000			17.239			-4.310
193604.000			17.238			-4.310
193705.000			17.239			-4.310
193804.000			17.239			-4.310
193904.000			17.238			-4.310
194005.000			17.238			-4.309
194103.000			17.237			-4.309
194204.000			17.237			-4.309
194305.000			17.237			-4.309
194404.000			17.237			-4.309
194504.000			17.235			-4.309
194605.000			17.236			-4.309
194704.000			17.236			-4.309
194805.000			17.236			-4.309
194904.000			17.235			-4.309
195003.000			17.235			-4.309
195105.000			17.235			-4.309
195203.000			17.235			-4.309
195304.000			17.235			-4.309
195405.000			17.235			-4.309
195504.000			17.235			-4.309
195604.000			17.234			-4.309
195705.000			17.233			-4.308
195804.000			17.234			-4.308
195903.000			17.235			-4.309
196005.000			17.235			-4.309
196103.000			17.235			-4.309
196204.000			17.235			-4.309
196305.000			17.234			-4.308
196404.000			17.233			-4.308
196504.000			17.234			-4.308
196605.000			17.234			-4.308
196704.000			17.234			-4.308
196803.000			17.234			-4.308
196905.000			17.234			-4.309
197003.000			17.234			-4.308
197104.000			17.234			-4.309
197205.000			17.234			-4.309
197304.000			17.233			-4.308
197404.000			17.234			-4.308
197505.000			17.234			-4.308
197604.000			17.234			-4.308
197704.000			17.234			-4.308
197805.000			17.234			-4.308
197903.000			17.233			-4.308
198005.000			17.233			-4.308
198104.000			17.234			-4.308
198204.000			17.233			-4.308
198305.000			17.232			-4.308
198404.000			17.231			-4.308
198504.000			17.231			-4.308
198605.000			17.232			-4.308
198704.000			17.232			-4.308
198803.000			17.231			-4.308
198905.000			17.230			-4.308
199004.000			17.231			-4.308
199104.000			17.232			-4.308
199205.000			17.231			-4.308
199304.000			17.230			-4.308
199404.000			17.230			-4.308
199505.000			17.230			-4.308
199604.000			17.230			-4.308
199703.000			17.230			-4.308
199805.000			17.231			-4.308
199904.000			17.231			-4.308
200004.000			17.230			-4.307
200105.000			17.230			-4.307
200204.000			17.230			-4.308
200304.000			17.230			-4.307
200405.000			17.230			-4.308
200504.000			17.229			-4.307
200603.000			17.229			-4.307
200705.000			17.229			-4.307
200804.000			17.229			-4.307
200904.000			17.228			-4.307
201005.000			17.228			-4.307
201104.000			17.227			-4.307
201205.000			17.227			-4.307
201304.000			17.226			-4.307
201404.000			17.226			-4.307
201504.000			17.226			-4.307
201604.000			17.227			-4.307
201704.000			17.227			-4.307
201805.000			17.227			-4.307
201904.000			17.227			-4.307
202004.000			17.226			-4.307
202105.000			17.226			-4.306
202203.000			17.226			-4.306
202304.000			17.227			-4.307
202405.000			17.224			-4.306
202504.000			17.225			-4.306
202604.000			17.225			-4.306
202705.000			17.225			-4.306
202804.000			17.225			-4.306
202904.000			17.225			-4.306
203005.000			17.224			-4.306
203103.000			17.224			-4.306
203204.000			17.224			-4.306
203305.000			17.224			-4.306
203404.000			17.224			-4.306
203504.000			17.223			-4.306
203605.000			17.223			-4.306
203704.000			17.223			-4.306
203803.000			17.223			-4.306
203905.000			17.222			-4.306
204003.000			17.222			-4.305
204104.000			17.223			-4.306
204205.000			17.223			-4.306
204304.000			17.222			-4.305
204405.000			17.222			-4.305
204504.000			17.223			-4.306
204604.000			17.223			-4.306
204704.000			17.222			-4.306
204804.000			17.222			-4.305
204903.000			17.222			-4.306
205005.000			17.222			-4.305
205104.000			17.222			-4.305
205204.000			17.222			-4.305
205305.000			17.221			-4.305
205404.000			17.221			-4.305
205504.000			17.221			-4.305
205604.000			17.221			-4.305
205704.000			17.221			-4.305
205804.000			17.221			-4.305
205905.000			17.221			-4.305
206004.000			17.221			-4.305
206104.000			17.221			-4.305
206205.000			17.221			-4.305
206303.000			17.220			-4.305
206404.000			17.220			-4.305
206505.000			17.220			-4.305
206604.000			17.219			-4.305
206704.000			17.220			-4.305
206805.000			17.220			-4.305
206904.000			17.221			-4.305
207004.000			17.220			-4.305
207105.000			17.219			-4.305
207203.000			17.219			-4.305
207304.000			17.218			-4.304
207405.000			17.218			-4.304
207504.000			17.219			-4.305
207605.000			17.218			-4.305
207704.000			17.219			-4.305
207804.000			17.218			-4.305
207905.000			17.217			-4.304
208004.000			17.218			-4.304
208103.000			17.218			-4.304
208205.000			17.216			-4.304
208304.000			17.217			-4.304
208404.000			17.216			-4.304
208505.000			17.216			-4.304
208604.000			17.216			-4.304
208704.000			17.216			-4.304
208804.000			17.216			-4.304
208904.000			17.215			-4.304
209003.000			17.216			-4.304
209105.000			17.216			-4.304
209204.000			17.215			-4.304
209304.000			17.216			-4.304
209405.000			17.216			-4.304
209504.000			17.215			-4.304
209604.000			17.216			-4.304
209704.000			17.215			-4.304
209804.000			17.215			-4.304
209904.000			17.215			-4.304
210005.000			17.214			-4.303
210104.000			17.214			-4.303
210204.000			17.214			-4.303
210305.000			17.213			-4.303
210404.000			17.213			-4.303
210504.000			17.212			-4.303
210604.000			17.212			-4.303
210704.000			17.212			-4.303
210805.000			17.212			-4.303
210904.000			17.212			-4.303
211004.000			17.210			-4.303
211105.000			17.210			-4.303
211204.000			17.211			-4.303
211303.000			17.210			-4.303
211405.000			17.209			-4.302
211504.000			17.209			-4.302
211604.000			17.209			-4.302
211705.000			17.209			-4.302
211804.000			17.208			-4.302
211904.000			17.208			-4.302
212005.000			17.208			-4.302
212104.000			17.207			-4.302
212203.000			17.208			-4.302
212305.000			17.207			-4.302
212404.000			17.206			-4.302
212504.000			17.206			-4.301
212605.000			17.207			-4.302
212704.000			17.207			-4.302
212804.000			17.206			-4.301
212904.000			17.206			-4.301
213004.000			17.205			-4.301
213103.000			17.205			-4.301
213205.000			17.205			-4.301
213304.000			17.205			-4.301
213404.000			17.204			-4.301
213505.000			17.204			-4.301
213604.000			17.203			-4.301
213704.000			17.203			-4.301
213804.000			17.203			-4.301
213904.000			17.204			-4.301
214005.000			17.203			-4.301
214104.000			17.202			-4.301
214204.000			17.201			-4.300
214305.000			17.203			-4.301
214404.000			17.203			-4.301
214503.000			17.202			-4.300
214605.000			17.201			-4.300
214704.000			17.201			-4.300
214804.000			17.202			-4.301
214905.000			17.202			-4.300
215004.000			17.201			-4.300
215104.000			17.201			-4.300
215205.000			17.201			-4.300
215304.000			17.200			-4.300
215403.000			17.200			-4.300
215505.000			17.200			-4.300
215604.000			17.200			-4.300
215704.000			17.200			-4.300
215805.000			17.199			-4.300
215904.000			17.200			-4.300
216004.000			17.201			-4.300
216105.000			17.200			-4.300
216204.000			17.198			-4.300
216303.000			17.199			-4.300
216405.000			17.198			-4.300
216504.000			17.197			-4.299
216604.000			17.197			-4.299
216705.000			17.198			-4.299
216804.000			17.197			-4.299
216904.000			17.197			-4.299
217004.000			17.195			-4.299
217104.000			17.196			-4.299
217203.000			17.196			-4.299
217304.000			17.196			-4.299
217404.000			17.196			-4.299
217505.000			17.197			-4.299
217604.000			17.198			-4.300
217704.000			17.198			-4.300
217805.000			17.199			-4.300
217903.000			17.198			-4.299
218004.000			17.197			-4.299
218104.000			17.198			-4.299
218204.000			17.197			-4.299
218304.000			17.197			-4.299
218405.000			17.196			-4.299
218504.000			17.195			-4.299
218604.000			17.195			-4.299
218705.000			17.195			-4.299
218804.000			17.194			-4.299
218904.000			17.194			-4.299
219004.000			17.193			-4.298
219104.000			17.194			-4.299
219204.000			17.195			-4.299
219305.000			17.193			-4.298
219404.000			17.193			-4.298
219504.000			17.194			-4.298
219605.000			17.193			-4.298
219703.000			17.193			-4.298
219804.000			17.194			-4.298
219904.000			17.193			-4.298
220004.000			17.193			-4.298
220104.000			17.193			-4.298
220205.000			17.194			-4.298
220304.000			17.193			-4.298
220405.000			17.192			-4.298
220504.000			17.192			-4.298
220603.000			17.191			-4.298
220705.000			17.192			-4.298
220804.000			17.192			-4.298
220904.000			17.192			-4.298
221005.000			17.192			-4.298
221104.000			17.193			-4.298
221204.000			17.192			-4.298
221305.000			17.191			-4.298
221404.000			17.191			-4.298
221503.000			17.191			-4.298
221605.000			17.192			-4.298
221704.000			17.191			-4.298
221804.000			17.191			-4.298
221905.000			17.190			-4.298
222004.000			17.190			-4.298
222104.000			17.190			-4.298
222205.000			17.190			-4.297
222304.000			17.189			-4.297
222403.000			17.190			-4.297
222505.000			17.190			-4.298
222604.000			17.190			-4.297
222704.000			17.190			-4.298
222805.000			17.189			-4.297
222904.000			17.189			-4.297
223004.000			17.189			-4.297
223105.000			17.190			-4.297
223204.000			17.189			-4.297
223303.000			17.188			-4.297
223405.000			17.187			-4.297
223504.000			17.187			-4.297
223605.000			17.188			-4.297
223704.000			17.189			-4.297
223804.000			17.188			-4.297
223905.000			17.188			-4.297
224004.000			17.189			-4.297
224104.000			17.188			-4.297
224204.000			17.188			-4.297
224304.000			17.188			-4.297
224404.000			17.188			-4.297
224505.000			17.188			-4.297
224604.000			17.188			-4.297
224704.000			17.188			-4.297
224805.000			17.188			-4.297
224904.000			17.188			-4.297
225004.000			17.187			-4.297
225104.000			17.188			-4.297
225204.000			17.187			-4.297
225303.000			17.187			-4.297
225405.000			17.188			-4.297
225504.000			17.188			-4.297
225604.000			17.188			-4.297
225705.000			17.188			-4.297
225804.000			17.189			-4.297
225904.000			17.189			-4.297
226004.000			17.190			-4.297
226104.000			17.189			-4.297
226203.000			17.189			-4.297
226305.000			17.190			-4.297
226404.000			17.189			-4.297
226504.000			17.189			-4.297
226605.000			17.188			-4.297
226704.000			17.188			-4.297
226805.000			17.189			-4.297
226904.000			17.189			-4.297
227004.000			17.189			-4.297
227104.000			17.190			-4.297
227204.000			17.190			-4.298
227304.000			17.190			-4.297
227405.000			17.190			-4.298
227504.000			17.190			-4.297
227604.000			17.189			-4.297
227705.000			17.188			-4.297
227804.000			17.188			-4.297
227904.000			17.188			-4.297
228004.000			17.188			-4.297
228104.000			17.189			-4.297
228204.000			17.188			-4.297
228305.000			17.188			-4.297
228404.000			17.186			-4.297
228504.000			17.186			-4.297
228605.000			17.185			-4.296
228704.000			17.186			-4.296
228804.000			17.186			-4.297
228904.000			17.186			-4.296
229004.000			17.185			-4.296
229104.000			17.184			-4.296
229205.000			17.184			-4.296
229304.000			17.185			-4.296
229404.000			17.185			-4.296
229505.000			17.185			-4.296
229604.000			17.185			-4.296
229704.000			17.186			-4.296
229804.000			17.185			-4.296
229904.000			17.185			-4.296
230005.000			17.185			-4.296
230104.000			17.185			-4.296
230204.000			17.186			-4.296
230305.000			17.186			-4.296
230404.000			17.187			-4.297
230504.000			17.185			-4.296
230605.000			17.185			-4.296
230703.000			17.185			-4.296
230804.000			17.184			-4.296
230905.000			17.184			-4.296
231004.000			17.184			-4.296
231104.000			17.183			-4.296
231205.000			17.183			-4.296
231304.000			17.184			-4.296
231404.000			17.183			-4.296
231505.000			17.183			-4.296
231603.000			17.183			-4.296
231704.000			17.183			-4.296
231805.000			17.182			-4.296
231904.000			17.182			-4.296
232004.000			17.182			-4.296
232105.000			17.181			-4.295
232204.000			17.181			-4.295
232303.000			17.181			-4.295
232405.000			17.180			-4.295
232503.000			17.180			-4.295
232604.000			17.181			-4.295
232705.000			17.181			-4.295
232804.000			17.180			-4.295
232904.000			17.180			-4.295
233005.000			17.179			-4.295
233104.000			17.179			-4.295
233203.000			17.179			-4.295
233304.000			17.179			-4.295
233403.000			17.178			-4.295
233505.000			17.178			-4.294
233604.000			17.178			-4.295
233704.000			17.177			-4.294
233805.000			17.177			-4.294
233904.000			17.177			-4.294
234004.000			17.177			-4.294
234104.000			17.176			-4.294
234204.000			17.176			-4.294
234303.000			17.176			-4.294
234405.000			17.176			-4.294
234504.000			17.176			-4.294
234604.000			17.177			-4.294
234705.000			17.176			-4.294
234804.000			17.176			-4.294
234904.000			17.176			-4.294
235004.000			17.176			-4.294
235104.000			17.175			-4.294
235203.000			17.175			-4.294
235305.000			17.175			-4.294
235404.000			17.175			-4.294
235504.000			17.175			-4.294
235605.000			17.175			-4.294
235704.000			17.174			-4.294
235804.000			17.175			-4.294
235904.000			17.174			-4.294
236004.000			17.175			-4.294
236103.000			17.173			-4.293
236205.000			17.172			-4.293
236304.000			17.172			-4.293
236405.000			17.172			-4.293
236504.000			17.172			-4.293
236604.000			17.172			-4.293
236705.000			17.172			-4.293
236803.000			17.171			-4.293
236904.000			17.172			-4.293
237005.000			17.172			-4.293
237104.000			17.171			-4.293
237204.000			17.172			-4.293
237305.000			17.171			-4.293
237404.000			17.171			-4.293
237504.000			17.171			-4.293
237605.000			17.171			-4.293
237703.000			17.172			-4.293
237804.000			17.171			-4.293
237905.000			17.171			-4.293
238004.000			17.171			-4.293
238104.000			17.169			-4.292
238205.000			17.170			-4.293
238304.000			17.170			-4.293
238404.000			17.171			-4.293
238505.000			17.170			-4.293
238603.000			17.170			-4.292
238704.000			17.170			-4.293
238805.000			17.169			-4.292
238904.000			17.170			-4.292
239004.000			17.170			-4.292
239105.000			17.169			-4.292
239204.000			17.169			-4.292
239304.000			17.170			-4.292
239405.000			17.171			-4.293
239503.000			17.171			-4.293
239605.000			17.170			-4.292
239704.000			17.169			-4.292
239804.000			17.170			-4.293
239905.000			17.171			-4.293
240004.000			17.171			-4.293
240104.000			17.171			-4.293
240205.000			17.170			-4.293
240304.000			17.169			-4.292
240403.000			17.170			-4.293
240505.000			17.171			-4.293
240604.000			17.170			-4.292
240704.000			17.170			-4.292
240805.000			17.170			-4.292
240904.000			17.170			-4.293
241004.000			17.170			-4.293
241105.000			17.171			-4.293
241204.000			17.171			-4.293
241303.000			17.170			-4.293
241405.000			17.170			-4.293
241504.000			17.170			-4.292
241604.000			17.170			-4.292
241705.000			17.170			-4.292
241804.000			17.170			-4.293
241904.000			17.171			-4.293
242004.000			17.171			-4.293
242104.000			17.170			-4.293
242203.000			17.170			-4.292
242305.000			17.169			-4.292
242404.000			17.169			-4.292
242504.000			17.169			-4.292
242605.000			17.169			-4.292
242704.000			17.169			-4.292
242805.000			17.168			-4.292
242904.000			17.168			-4.292
243004.000			17.169			-4.292
243104.000			17.168			-4.292
243204.000			17.168			-4.292
243304.000			17.168			-4.292
243405.000			17.166			-4.292
243504.000			17.166			-4.292
243604.000			17.166			-4.292
243705.000			17.166			-4.292
243804.000			17.168			-4.292
243904.000			17.165			-4.291
244004.000			17.164			-4.291
244104.000			17.165			-4.291
244204.000			17.165			-4.291
244305.000			17.165			-4.291
244404.000			17.164			-4.291
244504.000			17.164			-4.291
244605.000			17.164			-4.291
244703.000			17.163			-4.291
244804.000			17.163			-4.291
244904.000			17.163			-4.291
245004.000			17.163			-4.291
245104.000			17.162			-4.291
245205.000			17.162			-4.291
245304.000			17.163			-4.291
245404.000			17.163			-4.291
245505.000			17.163			-4.291
245603.000			17.163			-4.291
245704.000			17.162			-4.290
245805.000			17.161			-4.290
245904.000			17.161			-4.290
246005.000			17.162			-4.290
246104.000			17.162			-4.290
246204.000			17.162			-4.291
246305.000			17.162			-4.290
246404.000			17.161			-4.290
246503.000			17.161			-4.290
246605.000			17.160			-4.290
246704.000			17.160			-4.290
246804.000			17.160			-4.290
246905.000			17.160			-4.290
247004.000			17.159			-4.290
247104.000			17.160			-4.290
247205.000			17.160			-4.290
247304.000			17.160			-4.290
247403.000			17.160			-4.290
247505.000			17.160			-4.290
247603.000			17.159			-4.290
247704.000			17.159			-4.290
247805.000			17.160			-4.290
247904.000			17.159			-4.290
248004.000			17.158			-4.290
248105.000			17.158			-4.290
248204.000			17.158			-4.289
248304.000			17.156			-4.289
248405.000			17.156			-4.289
248503.000			17.156			-4.289
248604.000			17.156			-4.289
248705.000			17.156			-4.289
248804.000			17.157			-4.289
248904.000			17.159			-4.290
249005.000			17.158			-4.290
249104.000			17.157			-4.289
249205.000			17.157			-4.289
249304.000			17.158			-4.290
249403.000			17.158			-4.290
249505.000			17.158			-4.289
249604.000			17.158			-4.290
249704.000			17.161			-4.290
249805.000			17.160			-4.290
249904.000			17.160			-4.290
250004.000			17.160			-4.290
250105.000			17.160			-4.290
250204.000			17.160			-4.290
250303.000			17.160			-4.290
250405.000			17.159			-4.290
250504.000			17.158			-4.290
250604.000			17.158			-4.289
250705.000			17.159			-4.290
250804.000			17.159			-4.290
250904.000			17.159			-4.290
251005.000			17.158			-4.289
251104.000			17.159			-4.290
251203.000			17.159			-4.290
251305.000			17.158			-4.289
251404.000			17.158			-4.289
251504.000			17.157			-4.289
251605.000			17.158			-4.290
251704.000			17.158			-4.289
251804.000			17.156			-4.289
251905.000			17.156			-4.289
252004.000			17.154			-4.289
252103.000			17.155			-4.289
252205.000			17.155			-4.289
252304.000			17.154			-4.289
252405.000			17.155			-4.289
252504.000			17.154			-4.288
252604.000			17.153			-4.288
252705.000			17.154			-4.288
252804.000			17.154			-4.288
252904.000			17.153			-4.288
253004.000			17.153			-4.288
253104.000			17.152			-4.288
253204.000			17.152			-4.288
253305.000			17.152			-4.288
253404.000			17.151			-4.288
253504.000			17.151			-4.288
253605.000			17.151			-4.288
253704.000			17.150			-4.288
253804.000			17.151			-4.288
253904.000			17.152			-4.288
254004.000			17.151			-4.288
254104.000			17.151			-4.288
254205.000			17.150			-4.288
254304.000			17.152			-4.288
254404.000			17.152			-4.288
254505.000			17.151			-4.288
254604.000			17.152			-4.288
254704.000			17.150			-4.287
254804.000			17.151			-4.288
254904.000			17.150			-4.288
255004.000			17.150			-4.288
255105.000			17.150			-4.287
255204.000			17.150			-4.287
255304.000			17.149			-4.287
255405.000			17.149			-4.287
255504.000			17.149			-4.287
255605.000			17.148			-4.287
255703.000			17.148			-4.287
255804.000			17.148			-4.287
255905.000			17.148			-4.287
256004.000			17.148			-4.287
256104.000			17.148			-4.287
256205.000			17.147			-4.287
256304.000			17.148			-4.287
256404.000			17.148			-4.287
256505.000			17.148			-4.287
256603.000			17.148			-4.287
256704.000			17.147			-4.287
256805.000			17.147			-4.287
256904.000			17.146			-4.286
257004.000			17.146			-4.287
257105.000			17.148			-4.287
257204.000			17.147			-4.287
257304.000			17.147			-4.287
257405.000			17.146			-4.286
257503.000			17.147			-4.287
257604.000			17.146			-4.287
257705.000			17.146			-4.286
257804.000			17.145			-4.286
257904.000			17.146			-4.286
258005.000			17.145			-4.286
258104.000			17.146			-4.287
258204.000			17.146			-4.286
258305.000			17.146			-4.286
258403.000			17.145			-4.286
258504.000			17.144			-4.286
258605.000			17.144			-4.286
258704.000			17.144			-4.286
258805.000			17.145			-4.286
258904.000			17.145			-4.286
259004.000			17.144			-4.286
259105.000			17.145			-4.286
259204.000			17.144			-4.286
259303.000			17.144			-4.286
259405.000			17.144			-4.286
259504.000			17.144			-4.286
259604.000			17.145			-4.286
259705.000			17.144			-4.286
259804.000			17.143			-4.286
259904.000			17.143			-4.286
260005.000			17.143			-4.286
260104.000			17.142			-4.286
260203.000			17.143			-4.286
260305.000			17.143			-4.286
260404.000			17.143			-4.286
260504.000			17.143			-4.286
260605.000			17.142			-4.286
260704.000			17.142			-4.286
260804.000			17.142			-4.285
260904.000			17.142			-4.285
261004.000			17.142			-4.286
261103.000			17.142			-4.286
261205.000			17.142			-4.285
261304.000			17.141			-4.285
261404.000			17.141			-4.285
261505.000			17.141			-4.285
261604.000			17.140			-4.285
261704.000			17.141			-4.285
261804.000			17.140			-4.285
261904.000			17.140			-4.285
262003.000			17.140			-4.285
262104.000			17.139			-4.285
262204.000			17.139			-4.285
262305.000			17.140			-4.285
262404.000			17.140			-4.285
262504.000			17.140			-4.285
262605.000			17.140			-4.285
262703.000			17.139			-4.285
262804.000			17.140			-4.285
262904.000			17.139			-4.285
263004.000			17.139			-4.285
263104.000			17.138			-4.285
263205.000			17.137			-4.284
263304.000			17.137			-4.284
263404.000			17.138			-4.284
263505.000			17.138			-4.285
263603.000			17.138			-4.285
263704.000			17.137			-4.284
263805.000			17.138			-4.284
263904.000			17.138			-4.284
264004.000			17.137			-4.284
264105.000			17.136			-4.284
264204.000			17.137			-4.284
264304.000			17.137			-4.284
264405.000			17.137			-4.284
264503.000			17.138			-4.285
264604.000			17.138			-4.285
264705.000			17.137			-4.284
264804.000			17.138			-4.284
264904.000			17.137			-4.284
265005.000			17.137			-4.284
265104.000			17.137			-4.284
265205.000			17.137			-4.284
265304.000			17.137			-4.284
265403.000			17.136			-4.284
265505.000			17.136			-4.284
265604.000			17.136			-4.284
265704.000			17.136			-4.284
265805.000			17.136			-4.284
265904.000			17.135			-4.284
266004.000			17.135			-4.284
266105.000			17.136			-4.284
266204.000			17.136			-4.284
266303.000			17.135			-4.284
266405.000			17.136			-4.284
266504.000			17.136			-4.284
266604.000			17.135			-4.284
266705.000			17.135			-4.284
266804.000			17.135			-4.284
266904.000			17.135			-4.284
267005.000			17.135			-4.284
267104.000			17.135			-4.284
267203.000			17.135			-4.284
267305.000			17.135			-4.284
267404.000			17.135			-4.284
267504.000			17.136			-4.284
267605.000			17.137			-4.284
267704.000			17.137			-4.284
267804.000			17.137			-4.284
267905.000			17.136			-4.284
268004.000			17.137			-4.284
268103.000			17.137			-4.284
268205.000			17.137			-4.284
268304.000			17.137			-4.284
268405.000			17.136			-4.284
268504.000			17.136			-4.284
268604.000			17.137			-4.284
268705.000			17.137			-4.284
268804.000			17.135			-4.284
268904.000			17.135			-4.284
269004.000			17.136			-4.284
269104.000			17.137			-4.284
269203.000			17.136			-4.284
269305.000			17.136			-4.284
269404.000			17.136			-4.284
269504.000			17.136			-4.284
269605.000			17.135			-4.284
269704.000			17.135			-4.284
269804.000			17.136			-4.284
269904.000			17.137			-4.284
270004.000			17.135			-4.284
270103.000			17.135			-4.284
270205.000			17.135			-4.284
270304.000			17.135			-4.284
270404.000			17.134			-4.284
270505.000			17.134			-4.284
270604.000			17.135			-4.284
270704.000			17.135			-4.284
270804.000			17.135			-4.284
270904.000			17.135			-4.284
271004.000			17.134			-4.283
271105.000			17.133			-4.283
271204.000			17.133			-4.283
271304.000			17.132			-4.283
271405.000			17.132			-4.283
271503.000			17.132			-4.283
271605.000			17.131			-4.283
271703.000			17.132			-4.283
271804.000			17.131			-4.283
271905.000			17.131			-4.283
272004.000			17.131			-4.283
272104.000			17.131			-4.283
272205.000			17.130			-4.283
272304.000			17.129			-4.282
272403.000			17.129			-4.282
272505.000			17.129			-4.282
272604.000			17.129			-4.282
272704.000			17.128			-4.282
272805.000			17.130			-4.282
272904.000			17.129			-4.282
273004.000			17.128			-4.282
273105.000			17.128			-4.282
273204.000			17.128			-4.282
273303.000			17.128			-4.282
273405.000			17.128			-4.282
273504.000			17.128			-4.282
273604.000			17.127			-4.282
273705.000			17.127			-4.282
273804.000			17.127			-4.282
273904.000			17.126			-4.282
274005.000			17.126			-4.282
274104.000			17.127			-4.282
274203.000			17.126			-4.281
274305.000			17.126			-4.282
274404.000			17.126			-4.281
274504.000			17.126			-4.281
274605.000			17.125			-4.281
274704.000			17.126			-4.281
274805.000			17.126			-4.281
274904.000			17.125			-4.281
275004.000			17.125			-4.281
275104.000			17.126			-4.282
275204.000			17.125			-4.281
275304.000			17.125			-4.281
275405.000			17.124			-4.281
275504.000			17.125			-4.281
275604.000			17.125			-4.281
275705.000			17.125			-4.281
275804.000			17.124			-4.281
275904.000			17.124			-4.281
276004.000			17.125			-4.281
276104.000			17.125			-4.281
276204.000			17.125			-4.281
276305.000			17.124			-4.281
276404.000			17.125			-4.281
276504.000			17.123			-4.281
276605.000			17.124			-4.281
276704.000			17.125			-4.281
276804.000			17.124			-4.281
276904.000			17.124			-4.281
277004.000			17.123			-4.281
277104.000			17.123			-4.281
277205.000			17.123			-4.281
277304.000			17.124			-4.281
277404.000			17.124			-4.281
277505.000			17.123			-4.281
277604.000			17.123			-4.281
277704.000			17.123			-4.281
277804.000			17.122			-4.280
277904.000			17.123			-4.281
278005.000			17.123			-4.281
278104.000			17.123			-4.281
278204.000			17.122			-4.280
278305.000			17.122			-4.280
278404.000			17.122			-4.281
278504.000			17.122			-4.280
278605.000			17.121			-4.280
278703.000			17.122			-4.280
278804.000			17.121			-4.280
278905.000			17.121			-4.280
279004.000			17.122			-4.281
279104.000			17.122			-4.280
279205.000			17.121			-4.280
279304.000			17.121			-4.280
279404.000			17.120			-4.280
279505.000			17.119			-4.280
279603.000			17.120			-4.280
279704.000			17.120			-4.280
279805.000			17.121			-4.280
279904.000			17.120			-4.280
280004.000			17.119			-4.280
280105.000			17.119			-4.280
280204.000			17.119			-4.280
280304.000			17.119			-4.280
280405.000			17.119			-4.280
280503.000			17.118			-4.280
280604.000			17.118			-4.279
280705.000			17.118			-4.279
280804.000			17.118			-4.280
280904.000			17.119			-4.280
281005.000			17.118			-4.280
281104.000			17.119			-4.280
281203.000			17.118			-4.280
281304.000			17.118			-4.280
281403.000			17.119			-4.280
281505.000			17.118			-4.280
281604.000			17.117			-4.279
281704.000			17.117			-4.279
281805.000			17.116			-4.279
281904.000			17.117			-4.279
282004.000			17.117			-4.279
282104.000			17.117			-4.279
282204.000			17.118			-4.280
282303.000			17.118			-4.280
282405.000			17.116			-4.279
282504.000			17.115			-4.279
282604.000			17.116			-4.279
282705.000			17.117			-4.279
282804.000			17.117			-4.279
282904.000			17.118			-4.280
283004.000			17.117			-4.279
283104.000			17.115			-4.279
283204.000			17.116			-4.279
283305.000			17.116			-4.279
283404.000			17.116			-4.279
283504.000			17.115			-4.279
283605.000			17.115			-4.279
283704.000			17.115			-4.279
283804.000			17.116			-4.279
283904.000			17.116			-4.279
284004.000			17.116			-4.279
284104.000			17.115			-4.279
284205.000			17.114			-4.279
284304.000			17.115			-4.279
284405.000			17.115			-4.279
284504.000			17.115			-4.279
284604.000			17.114			-4.279
284705.000			17.115			-4.279
284803.000			17.114			-4.279
284904.000			17.114			-4.279
285005.000			17.115			-4.279
285104.000			17.114			-4.279
285204.000			17.114			-4.278
285305.000			17.114			-4.278
285404.000			17.113			-4.278
285504.000			17.114			-4.278
285605.000			17.114			-4.278
285703.000			17.114			-4.279
285804.000			17.114			-4.279
285905.000			17.113			-4.278
286004.000			17.113			-4.278
286104.000			17.113			-4.278
286205.000			17.113			-4.278
286304.000			17.112			-4.278
286403.000			17.111			-4.278
286505.000			17.111			-4.278
286603.000			17.112			-4.278
286704.000			17.112			-4.278
286805.000			17.113			-4.278
286904.000			17.112			-4.278
287004.000			17.112			-4.278
287105.000			17.111			-4.278
287204.000			17.112			-4.278
287303.000			17.112			-4.278
287405.000			17.111			-4.278
287504.000			17.111			-4.278
287605.000			17.111			-4.278
287704.000			17.111			-4.278
287804.000			17.111			-4.278
287905.000			17.112			-4.278
288004.000			17.112			-4.278
288104.000			17.110			-4.277
288204.000			17.110			-4.277
288304.000			17.110			-4.277
288404.000			17.110			-4.277
288505.000			17.110			-4.277
288604.000			17.109			-4.277
288704.000			17.109			-4.277
288805.000			17.110			-4.277
288904.000			17.111			-4.278
289004.000			17.110			-4.277
289104.000			17.110			-4.278
289204.000			17.110			-4.277
289303.000			17.110			-4.277
289405.000			17.109			-4.277
289504.000			17.109			-4.277
289604.000			17.109			-4.277
289705.000			17.109			-4.277
289804.000			17.108			-4.277
289904.000			17.107			-4.277
290004.000			17.108			-4.277
290104.000			17.108			-4.277
290203.000			17.109			-4.277
290305.000			17.108			-4.277
290404.000			17.108			-4.277
290504.000			17.107			-4.277
290605.000			17.108			-4.277
290704.000			17.108			-4.277
290805.000			17.107			-4.277
290903.000			17.108			-4.277
291004.000			17.108			-4.277
291104.000			17.107			-4.277
291204.000			17.107			-4.277
291304.000			17.107			-4.277
291405.000			17.107			-4.277
291504.000			17.106			-4.276
291604.000			17.107			-4.277
291705.000			17.107			-4.277
291803.000			17.106			-4.277
291904.000			17.106			-4.277
292005.000			17.106			-4.277
292104.000			17.106			-4.277
292204.000			17.106			-4.277
292305.000			17.106			-4.277
292404.000			17.107			-4.277
292504.000			17.106			-4.276
292605.000			17.106			-4.276
292703.000			17.105			-4.276
292804.000			17.106			-4.276
292905.000			17.106			-4.276
293004.000			17.106			-4.276
293104.000			17.105			-4.276
293205.000			17.104			-4.276
293304.000			17.105			-4.276
293404.000			17.105			-4.276
293505.000			17.105			-4.276
293603.000			17.105			-4.276
293704.000			17.105			-4.276
293805.000			17.105			-4.276
293904.000			17.105			-4.276
294005.000			17.105			-4.276
294104.000			17.105			-4.276
294204.000			17.105			-4.276
294305.000			17.105			-4.276
294404.000			17.104			-4.276
294503.000			17.104			-4.276
294605.000			17.104			-4.276
294704.000			17.105			-4.276
294804.000			17.104			-4.276
294905.000			17.104			-4.276
295004.000			17.104			-4.276
295104.000			17.103			-4.276
295204.000			17.104			-4.276
295304.000			17.103			-4.276
295403.000			17.103			-4.276
295505.000			17.102			-4.276
295604.000			17.102			-4.276
295704.000			17.104			-4.276
295805.000			17.104			-4.276
295904.000			17.102			-4.276
296004.000			17.102			-4.276
296104.000			17.102			-4.276
296204.000			17.103			-4.276
296304.000			17.103			-4.276
296405.000			17.103			-4.276
296504.000			17.103			-4.276
296604.000			17.103			-4.276
296705.000			17.102			-4.276
296804.000			17.103			-4.276
296904.000			17.101			-4.275
297004.000			17.101			-4.275
297104.000			17.101			-4.275
297205.000			17.100			-4.275
297304.000			17.100			-4.275
297404.000			17.100			-4.275
297505.000			17.101			-4.275
297604.000			17.101			-4.275
297704.000			17.100			-4.275
297805.000			17.100			-4.275
297903.000			17.100			-4.275
298004.000			17.101			-4.275
298105.000			17.101			-4.275
298204.000			17.099			-4.275
298304.000			17.098			-4.275
298405.000			17.100			-4.275
298504.000			17.100			-4.275
298604.000			17.099			-4.275
298705.000			17.098			-4.275
298803.000			17.098			-4.275
298904.000			17.099			-4.275
299004.000			17.099			-4.275
299104.000			17.099			-4.275
299204.000			17.098			-4.275
299305.000			17.098			-4.274
299404.000			17.097			-4.274
299504.000			17.098			-4.275
299605.000			17.098			-4.275
299704.000			17.098			-4.275
299804.000			17.098			-4.274
299904.000			17.098			-4.274
