# Acquired on 26/01/2024 16:23:51 
# SPIDER: Creep_-6mm_HM077x145x38AB-1
# CREEP MEASUREMENT

# time [ms]		force [N]		stiffness [N/mm]
1.000			20.502			-3.417
104.000			20.891			-3.482
204.000			20.950			-3.492
305.000			20.891			-3.482
403.000			20.839			-3.473
504.000			20.797			-3.466
605.000			20.727			-3.454
704.000			20.696			-3.449
804.000			20.670			-3.445
904.000			20.647			-3.441
1004.000			20.625			-3.437
1104.000			20.605			-3.434
1205.000			20.584			-3.431
1304.000			20.565			-3.428
1403.000			20.533			-3.422
1505.000			20.518			-3.420
1604.000			20.504			-3.417
1705.000			20.490			-3.415
1804.000			20.476			-3.413
1904.000			20.463			-3.411
2005.000			20.451			-3.408
2103.000			20.426			-3.404
2204.000			20.416			-3.403
2305.000			20.405			-3.401
2404.000			20.394			-3.399
2504.000			20.384			-3.397
2604.000			20.375			-3.396
2704.000			20.365			-3.394
2804.000			20.346			-3.391
2905.000			20.338			-3.390
3004.000			20.329			-3.388
3104.000			20.319			-3.387
3205.000			20.312			-3.385
3303.000			20.304			-3.384
3404.000			20.296			-3.383
3505.000			20.280			-3.380
3604.000			20.274			-3.379
3704.000			20.267			-3.378
3804.000			20.259			-3.377
3904.000			20.252			-3.375
4004.000			20.245			-3.374
4105.000			20.239			-3.373
4204.000			20.232			-3.372
4304.000			20.218			-3.370
4405.000			20.213			-3.369
4503.000			20.208			-3.368
4604.000			20.201			-3.367
4705.000			20.195			-3.366
4804.000			20.190			-3.365
4905.000			20.184			-3.364
5003.000			20.171			-3.362
5104.000			20.166			-3.361
5205.000			20.161			-3.360
5304.000			20.156			-3.359
5404.000			20.151			-3.358
5505.000			20.146			-3.358
5604.000			20.141			-3.357
5703.000			20.129			-3.355
5805.000			20.125			-3.354
5904.000			20.120			-3.353
6004.000			20.115			-3.353
6105.000			20.109			-3.352
6203.000			20.105			-3.351
6304.000			20.101			-3.350
6405.000			20.092			-3.349
6504.000			20.086			-3.348
6604.000			20.082			-3.347
6705.000			20.079			-3.346
6804.000			20.074			-3.346
6903.000			20.069			-3.345
7005.000			20.065			-3.344
7104.000			20.061			-3.344
7204.000			20.053			-3.342
7305.000			20.048			-3.341
7403.000			20.044			-3.341
7504.000			20.039			-3.340
7605.000			20.035			-3.339
7704.000			20.032			-3.339
7804.000			20.029			-3.338
7905.000			20.021			-3.337
8004.000			20.018			-3.336
8103.000			20.013			-3.336
8204.000			20.008			-3.335
8304.000			20.004			-3.334
8405.000			20.001			-3.333
8504.000			19.998			-3.333
8603.000			19.991			-3.332
8705.000			19.987			-3.331
8804.000			19.984			-3.331
8904.000			19.979			-3.330
9005.000			19.977			-3.329
9104.000			19.974			-3.329
9204.000			19.971			-3.328
9304.000			19.967			-3.328
9404.000			19.959			-3.326
9504.000			19.957			-3.326
9605.000			19.954			-3.326
9704.000			19.951			-3.325
9804.000			19.948			-3.325
9905.000			19.944			-3.324
10003.000			19.941			-3.323
10104.000			19.935			-3.323
10205.000			19.932			-3.322
10304.000			19.930			-3.322
10404.000			19.926			-3.321
10505.000			19.923			-3.320
10604.000			19.920			-3.320
10703.000			19.918			-3.320
10805.000			19.913			-3.319
10904.000			19.909			-3.318
11004.000			19.906			-3.318
11105.000			19.904			-3.317
11204.000			19.901			-3.317
11305.000			19.899			-3.316
11403.000			19.896			-3.316
11504.000			19.890			-3.315
11605.000			19.887			-3.314
11704.000			19.884			-3.314
11804.000			19.881			-3.314
11905.000			19.879			-3.313
12004.000			19.876			-3.313
12103.000			19.873			-3.312
12205.000			19.872			-3.312
12304.000			19.867			-3.311
12404.000			19.865			-3.311
12505.000			19.862			-3.310
12604.000			19.859			-3.310
12704.000			19.857			-3.309
12804.000			19.855			-3.309
12904.000			19.851			-3.309
13004.000			19.849			-3.308
13105.000			19.847			-3.308
13204.000			19.845			-3.307
13304.000			19.842			-3.307
13405.000			19.840			-3.307
13503.000			19.838			-3.306
13604.000			19.836			-3.306
13705.000			19.830			-3.305
13804.000			19.828			-3.305
13904.000			19.826			-3.304
14005.000			19.825			-3.304
14104.000			19.823			-3.304
14203.000			19.820			-3.303
14305.000			19.818			-3.303
14404.000			19.814			-3.302
14505.000			19.812			-3.302
14604.000			19.809			-3.302
14704.000			19.807			-3.301
14805.000			19.805			-3.301
14903.000			19.803			-3.301
15004.000			19.802			-3.300
15105.000			19.799			-3.300
15204.000			19.795			-3.299
15304.000			19.793			-3.299
15405.000			19.790			-3.298
15504.000			19.788			-3.298
15603.000			19.787			-3.298
15705.000			19.785			-3.297
15804.000			19.782			-3.297
15904.000			19.778			-3.296
16005.000			19.775			-3.296
16104.000			19.774			-3.296
16204.000			19.772			-3.295
16304.000			19.769			-3.295
16404.000			19.768			-3.295
16504.000			19.766			-3.294
16605.000			19.762			-3.294
16704.000			19.759			-3.293
16804.000			19.757			-3.293
16905.000			19.755			-3.292
17003.000			19.753			-3.292
17104.000			19.752			-3.292
17205.000			19.750			-3.292
17304.000			19.748			-3.291
17404.000			19.745			-3.291
17505.000			19.743			-3.290
17604.000			19.741			-3.290
17703.000			19.739			-3.290
17804.000			19.736			-3.289
17904.000			19.734			-3.289
18005.000			19.732			-3.289
18104.000			19.729			-3.288
18204.000			19.727			-3.288
18305.000			19.725			-3.288
18403.000			19.723			-3.287
18504.000			19.721			-3.287
18605.000			19.719			-3.287
18704.000			19.718			-3.286
18804.000			19.714			-3.286
18905.000			19.712			-3.285
19004.000			19.710			-3.285
19103.000			19.709			-3.285
19205.000			19.708			-3.285
19304.000			19.706			-3.284
19404.000			19.705			-3.284
19505.000			19.701			-3.284
19604.000			19.700			-3.283
19704.000			19.698			-3.283
19804.000			19.695			-3.283
19904.000			19.694			-3.282
20004.000			19.691			-3.282
20105.000			19.690			-3.282
20204.000			19.689			-3.281
20304.000			19.686			-3.281
20405.000			19.685			-3.281
20503.000			19.682			-3.280
20604.000			19.680			-3.280
20705.000			19.679			-3.280
20804.000			19.678			-3.280
20905.000			19.677			-3.279
21004.000			19.672			-3.279
21104.000			19.671			-3.278
21204.000			19.670			-3.278
21304.000			19.668			-3.278
21404.000			19.666			-3.278
21505.000			19.665			-3.277
21604.000			19.663			-3.277
21704.000			19.661			-3.277
21805.000			19.659			-3.277
21903.000			19.658			-3.276
22004.000			19.656			-3.276
22105.000			19.655			-3.276
22204.000			19.653			-3.276
22304.000			19.652			-3.275
22405.000			19.649			-3.275
22504.000			19.647			-3.275
22603.000			19.646			-3.274
22705.000			19.645			-3.274
22804.000			19.643			-3.274
22904.000			19.642			-3.274
23005.000			19.641			-3.273
23104.000			19.638			-3.273
23204.000			19.636			-3.273
23304.000			19.635			-3.272
23404.000			19.634			-3.272
23504.000			19.632			-3.272
23605.000			19.630			-3.272
23704.000			19.629			-3.271
23804.000			19.627			-3.271
23905.000			19.625			-3.271
24003.000			19.624			-3.271
24105.000			19.623			-3.270
24204.000			19.621			-3.270
24304.000			19.620			-3.270
24405.000			19.619			-3.270
24504.000			19.616			-3.269
24604.000			19.614			-3.269
24704.000			19.613			-3.269
24804.000			19.612			-3.269
24904.000			19.611			-3.268
25005.000			19.609			-3.268
25104.000			19.607			-3.268
25203.000			19.606			-3.268
25305.000			19.603			-3.267
25404.000			19.602			-3.267
25504.000			19.601			-3.267
25605.000			19.599			-3.266
25704.000			19.598			-3.266
25804.000			19.597			-3.266
25905.000			19.595			-3.266
26004.000			19.594			-3.266
26103.000			19.592			-3.265
26205.000			19.591			-3.265
26304.000			19.589			-3.265
26404.000			19.588			-3.265
26505.000			19.587			-3.264
26604.000			19.585			-3.264
26704.000			19.582			-3.264
26804.000			19.581			-3.264
26904.000			19.580			-3.263
27004.000			19.579			-3.263
27105.000			19.578			-3.263
27204.000			19.577			-3.263
27305.000			19.575			-3.263
27404.000			19.574			-3.262
27503.000			19.572			-3.262
27605.000			19.571			-3.262
27704.000			19.569			-3.261
27804.000			19.567			-3.261
27905.000			19.566			-3.261
28004.000			19.565			-3.261
28104.000			19.564			-3.261
28204.000			19.563			-3.260
28304.000			19.561			-3.260
28404.000			19.560			-3.260
28505.000			19.558			-3.260
28604.000			19.558			-3.260
28704.000			19.556			-3.259
28805.000			19.555			-3.259
28903.000			19.554			-3.259
29004.000			19.552			-3.259
29105.000			19.550			-3.258
29204.000			19.549			-3.258
29304.000			19.548			-3.258
29405.000			19.547			-3.258
29504.000			19.546			-3.258
29603.000			19.544			-3.257
29705.000			19.542			-3.257
29804.000			19.541			-3.257
29904.000			19.539			-3.257
30005.000			19.538			-3.256
30104.000			19.537			-3.256
30204.000			19.536			-3.256
30304.000			19.534			-3.256
30404.000			19.532			-3.255
30505.000			19.532			-3.255
30604.000			19.531			-3.255
30704.000			19.529			-3.255
30805.000			19.528			-3.255
30904.000			19.528			-3.255
31003.000			19.526			-3.254
31105.000			19.525			-3.254
31204.000			19.523			-3.254
31304.000			19.522			-3.254
31405.000			19.520			-3.253
31503.000			19.520			-3.253
31604.000			19.519			-3.253
31705.000			19.517			-3.253
31804.000			19.516			-3.253
31904.000			19.515			-3.253
32005.000			19.514			-3.252
32104.000			19.511			-3.252
32203.000			19.510			-3.252
32305.000			19.510			-3.252
32404.000			19.510			-3.252
32504.000			19.507			-3.251
32605.000			19.506			-3.251
32704.000			19.506			-3.251
32804.000			19.505			-3.251
32904.000			19.503			-3.250
33004.000			19.502			-3.250
33104.000			19.501			-3.250
33205.000			19.500			-3.250
33304.000			19.500			-3.250
33404.000			19.497			-3.249
33505.000			19.497			-3.249
33603.000			19.495			-3.249
33705.000			19.493			-3.249
33804.000			19.492			-3.249
33904.000			19.493			-3.249
34005.000			19.491			-3.249
34104.000			19.489			-3.248
34204.000			19.488			-3.248
34304.000			19.487			-3.248
34404.000			19.486			-3.248
34504.000			19.485			-3.248
34605.000			19.485			-3.247
34704.000			19.484			-3.247
34804.000			19.480			-3.247
34905.000			19.479			-3.247
35003.000			19.479			-3.246
35104.000			19.478			-3.246
35205.000			19.478			-3.246
35304.000			19.477			-3.246
35404.000			19.476			-3.246
35505.000			19.473			-3.245
35604.000			19.472			-3.245
35703.000			19.471			-3.245
35805.000			19.470			-3.245
35904.000			19.469			-3.245
36004.000			19.469			-3.245
36105.000			19.467			-3.245
36204.000			19.466			-3.244
36304.000			19.464			-3.244
36404.000			19.463			-3.244
36504.000			19.462			-3.244
36604.000			19.461			-3.244
36705.000			19.460			-3.243
36804.000			19.459			-3.243
36905.000			19.459			-3.243
37004.000			19.458			-3.243
37103.000			19.456			-3.243
37205.000			19.454			-3.242
37304.000			19.453			-3.242
37404.000			19.454			-3.242
37505.000			19.453			-3.242
37604.000			19.453			-3.242
37704.000			19.449			-3.241
37804.000			19.449			-3.242
37904.000			19.449			-3.241
38004.000			19.447			-3.241
38105.000			19.446			-3.241
38204.000			19.446			-3.241
38304.000			19.444			-3.241
38405.000			19.442			-3.240
38503.000			19.442			-3.240
38604.000			19.440			-3.240
38705.000			19.439			-3.240
38804.000			19.439			-3.240
38904.000			19.439			-3.240
39005.000			19.437			-3.240
39104.000			19.436			-3.239
39203.000			19.437			-3.239
39305.000			19.435			-3.239
39404.000			19.433			-3.239
39504.000			19.431			-3.238
39605.000			19.431			-3.238
39704.000			19.430			-3.238
39804.000			19.429			-3.238
39904.000			19.427			-3.238
40004.000			19.426			-3.238
40103.000			19.426			-3.238
40204.000			19.425			-3.238
40304.000			19.424			-3.237
40405.000			19.422			-3.237
40504.000			19.421			-3.237
40603.000			19.419			-3.237
40705.000			19.420			-3.237
40804.000			19.419			-3.237
40904.000			19.418			-3.236
41005.000			19.418			-3.236
41104.000			19.416			-3.236
41204.000			19.414			-3.236
41304.000			19.413			-3.236
41404.000			19.412			-3.235
41504.000			19.411			-3.235
41605.000			19.411			-3.235
41704.000			19.410			-3.235
41804.000			19.409			-3.235
41905.000			19.408			-3.235
42003.000			19.407			-3.235
42104.000			19.407			-3.234
42205.000			19.406			-3.234
42304.000			19.406			-3.234
42404.000			19.404			-3.234
42505.000			19.403			-3.234
42604.000			19.403			-3.234
42703.000			19.401			-3.234
42805.000			19.400			-3.233
42904.000			19.400			-3.233
43004.000			19.400			-3.233
43105.000			19.398			-3.233
43204.000			19.397			-3.233
43305.000			19.395			-3.233
43403.000			19.395			-3.232
43504.000			19.393			-3.232
43605.000			19.393			-3.232
43704.000			19.391			-3.232
43804.000			19.391			-3.232
43905.000			19.392			-3.232
44004.000			19.391			-3.232
44103.000			19.389			-3.232
44205.000			19.387			-3.231
44304.000			19.386			-3.231
44404.000			19.384			-3.231
44505.000			19.385			-3.231
44604.000			19.385			-3.231
44704.000			19.384			-3.231
44804.000			19.384			-3.231
44904.000			19.382			-3.230
45004.000			19.381			-3.230
45105.000			19.379			-3.230
45204.000			19.379			-3.230
45304.000			19.378			-3.230
45405.000			19.378			-3.230
45503.000			19.377			-3.229
45604.000			19.374			-3.229
45705.000			19.375			-3.229
45804.000			19.374			-3.229
45904.000			19.373			-3.229
46005.000			19.372			-3.229
46104.000			19.371			-3.229
46203.000			19.371			-3.228
46305.000			19.370			-3.228
46404.000			19.369			-3.228
46505.000			19.368			-3.228
46604.000			19.368			-3.228
46704.000			19.367			-3.228
46805.000			19.366			-3.228
46903.000			19.364			-3.227
47004.000			19.363			-3.227
47105.000			19.363			-3.227
47204.000			19.363			-3.227
47304.000			19.362			-3.227
47405.000			19.360			-3.227
47504.000			19.359			-3.227
47603.000			19.360			-3.227
47705.000			19.358			-3.226
47804.000			19.357			-3.226
47904.000			19.356			-3.226
48005.000			19.355			-3.226
48104.000			19.355			-3.226
48204.000			19.354			-3.226
48304.000			19.353			-3.226
48404.000			19.353			-3.225
48504.000			19.353			-3.226
48605.000			19.350			-3.225
48704.000			19.350			-3.225
48804.000			19.350			-3.225
48905.000			19.350			-3.225
49003.000			19.348			-3.225
49104.000			19.348			-3.225
49205.000			19.346			-3.224
49304.000			19.346			-3.224
49404.000			19.345			-3.224
49505.000			19.343			-3.224
49604.000			19.343			-3.224
49703.000			19.342			-3.224
49804.000			19.341			-3.224
49904.000			19.340			-3.223
50005.000			19.340			-3.223
50104.000			19.339			-3.223
50204.000			19.338			-3.223
50305.000			19.336			-3.223
50403.000			19.336			-3.223
50504.000			19.336			-3.223
50605.000			19.335			-3.223
50704.000			19.334			-3.222
50804.000			19.333			-3.222
50904.000			19.332			-3.222
51004.000			19.332			-3.222
51103.000			19.330			-3.222
51205.000			19.329			-3.222
51304.000			19.330			-3.222
51404.000			19.329			-3.222
51505.000			19.328			-3.221
51603.000			19.328			-3.221
51704.000			19.326			-3.221
51805.000			19.325			-3.221
51904.000			19.324			-3.221
52004.000			19.324			-3.221
52105.000			19.324			-3.221
52204.000			19.323			-3.220
52303.000			19.321			-3.220
52405.000			19.319			-3.220
52504.000			19.319			-3.220
52604.000			19.318			-3.220
52705.000			19.318			-3.220
52804.000			19.318			-3.220
52905.000			19.318			-3.220
53003.000			19.316			-3.219
53104.000			19.314			-3.219
53205.000			19.315			-3.219
53304.000			19.315			-3.219
53404.000			19.313			-3.219
53505.000			19.313			-3.219
53604.000			19.312			-3.219
53703.000			19.310			-3.218
53805.000			19.309			-3.218
53904.000			19.309			-3.218
54004.000			19.309			-3.218
54105.000			19.309			-3.218
54204.000			19.308			-3.218
54304.000			19.306			-3.218
54404.000			19.306			-3.218
54504.000			19.305			-3.217
54604.000			19.304			-3.217
54705.000			19.304			-3.217
54804.000			19.303			-3.217
54903.000			19.302			-3.217
55005.000			19.301			-3.217
55104.000			19.299			-3.217
55204.000			19.299			-3.217
55305.000			19.299			-3.217
55404.000			19.298			-3.216
55504.000			19.297			-3.216
55604.000			19.298			-3.216
55704.000			19.296			-3.216
55803.000			19.295			-3.216
55905.000			19.294			-3.216
56004.000			19.293			-3.216
56105.000			19.292			-3.215
56204.000			19.292			-3.215
56304.000			19.290			-3.215
56405.000			19.290			-3.215
56503.000			19.290			-3.215
56604.000			19.289			-3.215
56705.000			19.289			-3.215
56804.000			19.289			-3.215
56904.000			19.289			-3.215
57005.000			19.287			-3.215
57104.000			19.286			-3.214
57203.000			19.286			-3.214
57305.000			19.283			-3.214
57404.000			19.282			-3.214
57504.000			19.283			-3.214
57605.000			19.282			-3.214
57704.000			19.281			-3.214
57804.000			19.281			-3.213
57904.000			19.281			-3.214
58004.000			19.280			-3.213
58104.000			19.278			-3.213
58205.000			19.277			-3.213
58304.000			19.277			-3.213
58404.000			19.276			-3.213
58505.000			19.277			-3.213
58603.000			19.275			-3.213
58704.000			19.275			-3.212
58805.000			19.274			-3.212
58904.000			19.273			-3.212
59004.000			19.272			-3.212
59105.000			19.272			-3.212
59204.000			19.273			-3.212
59303.000			19.272			-3.212
59404.000			19.271			-3.212
59504.000			19.269			-3.212
59605.000			19.269			-3.211
59704.000			19.269			-3.211
59804.000			19.268			-3.211
59905.000			19.266			-3.211
60004.000			19.265			-3.211
60104.000			19.265			-3.211
60204.000			19.264			-3.211
60304.000			19.264			-3.211
60404.000			19.262			-3.210
60505.000			19.262			-3.210
60604.000			19.263			-3.210
60703.000			19.261			-3.210
60805.000			19.260			-3.210
60904.000			19.260			-3.210
61004.000			19.260			-3.210
61105.000			19.259			-3.210
61204.000			19.257			-3.210
61304.000			19.257			-3.210
61404.000			19.256			-3.209
61504.000			19.255			-3.209
61603.000			19.256			-3.209
61705.000			19.255			-3.209
61804.000			19.254			-3.209
61904.000			19.254			-3.209
62005.000			19.254			-3.209
62104.000			19.253			-3.209
62204.000			19.252			-3.209
62305.000			19.251			-3.209
62404.000			19.250			-3.208
62505.000			19.250			-3.208
62604.000			19.250			-3.208
62704.000			19.249			-3.208
62804.000			19.248			-3.208
62904.000			19.247			-3.208
63003.000			19.246			-3.208
63105.000			19.246			-3.208
63204.000			19.246			-3.208
63304.000			19.245			-3.208
63405.000			19.244			-3.207
63503.000			19.243			-3.207
63604.000			19.243			-3.207
63705.000			19.243			-3.207
63804.000			19.243			-3.207
63904.000			19.242			-3.207
64005.000			19.241			-3.207
64104.000			19.240			-3.207
64203.000			19.239			-3.206
64305.000			19.239			-3.206
64404.000			19.238			-3.206
64504.000			19.238			-3.206
64605.000			19.235			-3.206
64704.000			19.236			-3.206
64804.000			19.236			-3.206
64904.000			19.235			-3.206
65004.000			19.234			-3.206
65104.000			19.234			-3.206
65205.000			19.233			-3.205
65304.000			19.232			-3.205
65404.000			19.232			-3.205
65505.000			19.232			-3.205
65603.000			19.231			-3.205
65705.000			19.230			-3.205
65804.000			19.230			-3.205
65904.000			19.230			-3.205
66005.000			19.228			-3.205
66104.000			19.228			-3.205
66204.000			19.228			-3.205
66304.000			19.227			-3.204
66404.000			19.226			-3.204
66503.000			19.226			-3.204
66605.000			19.225			-3.204
66704.000			19.224			-3.204
66804.000			19.223			-3.204
66905.000			19.222			-3.204
67003.000			19.222			-3.204
67104.000			19.221			-3.204
67205.000			19.221			-3.204
67304.000			19.221			-3.204
67404.000			19.220			-3.203
67505.000			19.218			-3.203
67604.000			19.218			-3.203
67703.000			19.218			-3.203
67805.000			19.217			-3.203
67904.000			19.216			-3.203
68004.000			19.217			-3.203
68105.000			19.216			-3.203
68204.000			19.213			-3.202
68304.000			19.213			-3.202
68404.000			19.213			-3.202
68504.000			19.213			-3.202
68604.000			19.212			-3.202
68705.000			19.211			-3.202
68804.000			19.211			-3.202
68905.000			19.211			-3.202
69004.000			19.209			-3.201
69103.000			19.208			-3.201
69205.000			19.209			-3.201
69304.000			19.209			-3.202
69404.000			19.209			-3.201
69505.000			19.208			-3.201
69604.000			19.208			-3.201
69704.000			19.206			-3.201
69804.000			19.205			-3.201
69904.000			19.205			-3.201
70003.000			19.204			-3.201
70105.000			19.203			-3.200
70204.000			19.202			-3.200
70304.000			19.202			-3.200
70405.000			19.200			-3.200
70503.000			19.200			-3.200
70604.000			19.199			-3.200
70705.000			19.199			-3.200
70804.000			19.199			-3.200
70904.000			19.199			-3.200
71005.000			19.197			-3.200
71104.000			19.196			-3.199
71204.000			19.197			-3.199
71305.000			19.196			-3.199
71403.000			19.194			-3.199
71504.000			19.194			-3.199
71605.000			19.194			-3.199
71704.000			19.195			-3.199
71804.000			19.194			-3.199
71905.000			19.193			-3.199
72004.000			19.192			-3.199
72103.000			19.191			-3.199
72204.000			19.190			-3.198
72304.000			19.190			-3.198
72405.000			19.190			-3.198
72504.000			19.189			-3.198
72604.000			19.189			-3.198
72705.000			19.189			-3.198
72803.000			19.189			-3.198
72904.000			19.187			-3.198
73005.000			19.187			-3.198
73104.000			19.186			-3.198
73204.000			19.185			-3.198
73305.000			19.184			-3.197
73404.000			19.184			-3.197
73503.000			19.184			-3.197
73605.000			19.184			-3.197
73704.000			19.182			-3.197
73804.000			19.181			-3.197
73905.000			19.181			-3.197
74004.000			19.180			-3.197
74104.000			19.180			-3.197
74204.000			19.181			-3.197
74304.000			19.180			-3.197
74404.000			19.179			-3.197
74505.000			19.178			-3.196
74604.000			19.177			-3.196
74704.000			19.177			-3.196
74805.000			19.176			-3.196
74904.000			19.176			-3.196
75004.000			19.176			-3.196
75104.000			19.175			-3.196
75204.000			19.175			-3.196
75305.000			19.174			-3.196
75404.000			19.174			-3.196
75504.000			19.172			-3.195
75605.000			19.172			-3.195
75704.000			19.172			-3.195
75803.000			19.171			-3.195
75905.000			19.171			-3.195
76004.000			19.172			-3.195
76104.000			19.170			-3.195
76205.000			19.169			-3.195
76304.000			19.170			-3.195
76404.000			19.168			-3.195
76504.000			19.167			-3.195
76604.000			19.167			-3.194
76704.000			19.167			-3.194
76805.000			19.166			-3.194
76904.000			19.165			-3.194
77004.000			19.166			-3.194
77105.000			19.165			-3.194
77203.000			19.164			-3.194
77304.000			19.162			-3.194
77405.000			19.162			-3.194
77504.000			19.163			-3.194
77604.000			19.163			-3.194
77705.000			19.162			-3.194
77804.000			19.161			-3.194
77903.000			19.161			-3.193
78005.000			19.159			-3.193
78104.000			19.159			-3.193
78204.000			19.159			-3.193
78305.000			19.158			-3.193
78404.000			19.157			-3.193
78505.000			19.158			-3.193
78603.000			19.157			-3.193
78704.000			19.155			-3.193
78805.000			19.156			-3.193
78904.000			19.155			-3.193
79004.000			19.155			-3.192
79105.000			19.154			-3.192
79204.000			19.152			-3.192
79303.000			19.152			-3.192
79405.000			19.151			-3.192
79504.000			19.152			-3.192
79604.000			19.151			-3.192
79705.000			19.151			-3.192
79804.000			19.152			-3.192
79904.000			19.150			-3.192
80004.000			19.149			-3.192
80104.000			19.149			-3.192
80204.000			19.149			-3.191
80305.000			19.147			-3.191
80404.000			19.146			-3.191
80504.000			19.147			-3.191
80605.000			19.146			-3.191
80703.000			19.144			-3.191
80804.000			19.144			-3.191
80905.000			19.144			-3.191
81004.000			19.143			-3.191
81104.000			19.143			-3.190
81205.000			19.142			-3.190
81304.000			19.141			-3.190
81403.000			19.142			-3.190
81505.000			19.142			-3.190
81604.000			19.142			-3.190
81705.000			19.141			-3.190
81804.000			19.141			-3.190
81904.000			19.140			-3.190
82005.000			19.139			-3.190
82103.000			19.138			-3.190
82204.000			19.138			-3.190
82305.000			19.137			-3.190
82404.000			19.137			-3.189
82504.000			19.136			-3.189
82605.000			19.135			-3.189
82704.000			19.134			-3.189
82803.000			19.135			-3.189
82905.000			19.135			-3.189
83004.000			19.134			-3.189
83104.000			19.134			-3.189
83205.000			19.133			-3.189
83304.000			19.131			-3.189
83404.000			19.131			-3.188
83504.000			19.130			-3.188
83604.000			19.130			-3.188
83704.000			19.129			-3.188
83805.000			19.129			-3.188
83904.000			19.129			-3.188
84004.000			19.129			-3.188
84105.000			19.128			-3.188
84203.000			19.127			-3.188
84304.000			19.126			-3.188
84405.000			19.127			-3.188
84504.000			19.126			-3.188
84604.000			19.125			-3.187
84705.000			19.124			-3.187
84804.000			19.124			-3.187
84903.000			19.123			-3.187
85004.000			19.124			-3.187
85103.000			19.123			-3.187
85205.000			19.122			-3.187
85304.000			19.121			-3.187
85404.000			19.121			-3.187
85505.000			19.122			-3.187
85603.000			19.122			-3.187
85704.000			19.120			-3.187
85805.000			19.119			-3.187
85904.000			19.119			-3.186
86004.000			19.119			-3.186
86105.000			19.118			-3.186
86204.000			19.117			-3.186
86303.000			19.117			-3.186
86405.000			19.116			-3.186
86504.000			19.116			-3.186
86604.000			19.116			-3.186
86705.000			19.114			-3.186
86804.000			19.114			-3.186
86904.000			19.114			-3.186
87004.000			19.113			-3.186
87104.000			19.114			-3.186
87203.000			19.112			-3.185
87305.000			19.111			-3.185
87404.000			19.111			-3.185
87504.000			19.111			-3.185
87605.000			19.111			-3.185
87704.000			19.110			-3.185
87804.000			19.109			-3.185
87904.000			19.109			-3.185
88004.000			19.109			-3.185
88105.000			19.109			-3.185
88204.000			19.108			-3.185
88304.000			19.108			-3.185
88405.000			19.107			-3.185
88504.000			19.106			-3.184
88603.000			19.106			-3.184
88705.000			19.106			-3.184
88804.000			19.104			-3.184
88904.000			19.104			-3.184
89005.000			19.104			-3.184
89104.000			19.103			-3.184
89204.000			19.103			-3.184
89304.000			19.102			-3.184
89404.000			19.101			-3.184
89504.000			19.102			-3.184
89605.000			19.102			-3.184
89704.000			19.102			-3.184
89804.000			19.101			-3.184
89905.000			19.100			-3.183
90003.000			19.099			-3.183
90104.000			19.098			-3.183
90205.000			19.099			-3.183
90304.000			19.099			-3.183
90404.000			19.098			-3.183
90505.000			19.097			-3.183
90604.000			19.097			-3.183
90703.000			19.096			-3.183
90805.000			19.095			-3.183
90904.000			19.095			-3.183
91004.000			19.095			-3.183
91105.000			19.095			-3.182
91204.000			19.095			-3.182
91305.000			19.094			-3.182
91403.000			19.093			-3.182
91504.000			19.094			-3.182
91605.000			19.093			-3.182
91704.000			19.092			-3.182
91804.000			19.092			-3.182
91905.000			19.091			-3.182
92004.000			19.091			-3.182
92103.000			19.089			-3.182
92205.000			19.089			-3.182
92304.000			19.089			-3.181
92404.000			19.089			-3.181
92505.000			19.088			-3.181
92604.000			19.088			-3.181
92704.000			19.087			-3.181
92804.000			19.087			-3.181
92904.000			19.086			-3.181
93003.000			19.086			-3.181
93105.000			19.084			-3.181
93204.000			19.084			-3.181
93304.000			19.084			-3.181
93405.000			19.084			-3.181
93504.000			19.084			-3.181
93604.000			19.083			-3.181
93704.000			19.083			-3.180
93804.000			19.083			-3.180
93904.000			19.082			-3.180
94005.000			19.081			-3.180
94104.000			19.081			-3.180
94204.000			19.080			-3.180
94305.000			19.080			-3.180
94403.000			19.079			-3.180
94505.000			19.079			-3.180
94604.000			19.079			-3.180
94704.000			19.077			-3.180
94805.000			19.076			-3.179
94904.000			19.077			-3.180
95004.000			19.077			-3.179
95104.000			19.076			-3.179
95204.000			19.076			-3.179
95304.000			19.076			-3.179
95405.000			19.075			-3.179
95504.000			19.075			-3.179
95604.000			19.074			-3.179
95705.000			19.074			-3.179
95803.000			19.075			-3.179
95904.000			19.074			-3.179
96005.000			19.072			-3.179
96104.000			19.072			-3.179
96204.000			19.072			-3.179
96305.000			19.072			-3.179
96404.000			19.071			-3.178
96503.000			19.071			-3.179
96605.000			19.070			-3.178
96704.000			19.069			-3.178
96804.000			19.068			-3.178
96905.000			19.068			-3.178
97004.000			19.069			-3.178
97104.000			19.068			-3.178
97205.000			19.068			-3.178
97304.000			19.067			-3.178
97403.000			19.066			-3.178
97505.000			19.066			-3.178
97604.000			19.066			-3.178
97705.000			19.066			-3.178
97804.000			19.065			-3.178
97904.000			19.065			-3.177
98005.000			19.063			-3.177
98103.000			19.062			-3.177
98204.000			19.063			-3.177
98305.000			19.063			-3.177
98404.000			19.062			-3.177
98504.000			19.061			-3.177
98605.000			19.061			-3.177
98704.000			19.060			-3.177
98803.000			19.060			-3.177
98905.000			19.059			-3.177
99004.000			19.060			-3.177
99104.000			19.060			-3.177
99205.000			19.058			-3.176
99304.000			19.058			-3.176
99404.000			19.058			-3.176
99504.000			19.057			-3.176
99604.000			19.057			-3.176
99703.000			19.056			-3.176
99805.000			19.056			-3.176
99904.000			19.055			-3.176
100004.000			19.055			-3.176
100105.000			19.055			-3.176
100204.000			19.054			-3.176
100304.000			19.054			-3.176
100404.000			19.053			-3.176
100504.000			19.053			-3.175
100604.000			19.052			-3.175
100705.000			19.052			-3.175
100804.000			19.051			-3.175
100905.000			19.051			-3.175
101004.000			19.051			-3.175
101103.000			19.051			-3.175
101205.000			19.050			-3.175
101304.000			19.050			-3.175
101404.000			19.050			-3.175
101505.000			19.050			-3.175
101604.000			19.048			-3.175
101704.000			19.047			-3.175
101804.000			19.046			-3.174
101904.000			19.046			-3.174
102004.000			19.045			-3.174
102105.000			19.045			-3.174
102204.000			19.045			-3.174
102304.000			19.046			-3.174
102405.000			19.044			-3.174
102503.000			19.043			-3.174
102604.000			19.043			-3.174
102705.000			19.043			-3.174
102804.000			19.043			-3.174
102904.000			19.043			-3.174
103005.000			19.042			-3.174
103104.000			19.042			-3.174
103203.000			19.042			-3.174
103305.000			19.042			-3.174
103404.000			19.041			-3.174
103504.000			19.041			-3.173
103605.000			19.040			-3.173
103704.000			19.040			-3.173
103804.000			19.040			-3.173
103904.000			19.038			-3.173
104004.000			19.038			-3.173
104105.000			19.037			-3.173
104204.000			19.037			-3.173
104304.000			19.036			-3.173
104405.000			19.036			-3.173
104504.000			19.037			-3.173
104603.000			19.037			-3.173
104705.000			19.035			-3.172
104804.000			19.035			-3.172
104904.000			19.035			-3.173
105005.000			19.034			-3.172
105104.000			19.033			-3.172
105204.000			19.033			-3.172
105304.000			19.032			-3.172
105404.000			19.032			-3.172
105504.000			19.032			-3.172
105605.000			19.033			-3.172
105704.000			19.033			-3.172
105804.000			19.032			-3.172
105905.000			19.032			-3.172
106003.000			19.031			-3.172
106104.000			19.030			-3.172
106205.000			19.029			-3.171
106304.000			19.029			-3.172
106404.000			19.029			-3.172
106505.000			19.028			-3.171
106604.000			19.028			-3.171
106703.000			19.028			-3.171
106805.000			19.029			-3.171
106904.000			19.027			-3.171
107004.000			19.026			-3.171
107105.000			19.025			-3.171
107204.000			19.026			-3.171
107305.000			19.027			-3.171
107403.000			19.026			-3.171
107504.000			19.024			-3.171
107605.000			19.024			-3.171
107704.000			19.024			-3.171
107804.000			19.024			-3.171
107905.000			19.023			-3.170
108004.000			19.023			-3.171
108103.000			19.024			-3.171
108205.000			19.021			-3.170
108304.000			19.021			-3.170
108404.000			19.021			-3.170
108505.000			19.021			-3.170
108604.000			19.021			-3.170
108704.000			19.020			-3.170
108804.000			19.020			-3.170
108904.000			19.018			-3.170
109003.000			19.018			-3.170
109105.000			19.019			-3.170
109204.000			19.018			-3.170
109304.000			19.017			-3.170
109405.000			19.017			-3.169
109504.000			19.017			-3.170
109604.000			19.016			-3.169
109704.000			19.015			-3.169
109804.000			19.016			-3.169
109904.000			19.016			-3.169
110005.000			19.015			-3.169
110104.000			19.015			-3.169
110204.000			19.015			-3.169
110305.000			19.014			-3.169
110403.000			19.013			-3.169
110505.000			19.014			-3.169
110604.000			19.013			-3.169
110704.000			19.013			-3.169
110805.000			19.013			-3.169
110904.000			19.011			-3.169
111004.000			19.012			-3.169
111104.000			19.011			-3.169
111204.000			19.012			-3.169
111304.000			19.011			-3.168
111405.000			19.009			-3.168
111504.000			19.008			-3.168
111604.000			19.008			-3.168
111705.000			19.009			-3.168
111803.000			19.007			-3.168
111904.000			19.007			-3.168
112005.000			19.007			-3.168
112104.000			19.008			-3.168
112204.000			19.007			-3.168
112305.000			19.006			-3.168
112404.000			19.006			-3.168
112503.000			19.005			-3.167
112605.000			19.004			-3.167
112704.000			19.005			-3.167
112804.000			19.003			-3.167
112905.000			19.003			-3.167
113004.000			19.003			-3.167
113104.000			19.002			-3.167
113204.000			19.002			-3.167
113304.000			19.001			-3.167
113404.000			19.002			-3.167
113505.000			19.002			-3.167
113604.000			19.001			-3.167
113705.000			19.002			-3.167
113804.000			19.001			-3.167
113903.000			19.000			-3.167
114005.000			19.000			-3.167
114104.000			18.999			-3.167
114204.000			18.998			-3.166
114305.000			18.998			-3.166
114404.000			18.997			-3.166
114504.000			18.998			-3.166
114604.000			18.998			-3.166
114704.000			18.997			-3.166
114804.000			18.996			-3.166
114905.000			18.996			-3.166
115004.000			18.997			-3.166
115104.000			18.996			-3.166
115205.000			18.995			-3.166
115304.000			18.996			-3.166
115404.000			18.995			-3.166
115504.000			18.995			-3.166
115604.000			18.995			-3.166
115704.000			18.995			-3.166
115805.000			18.995			-3.166
115904.000			18.995			-3.166
116004.000			18.995			-3.166
116105.000			18.995			-3.166
116203.000			18.995			-3.166
116304.000			18.996			-3.166
116405.000			18.995			-3.166
116504.000			18.995			-3.166
116604.000			18.994			-3.166
116705.000			18.994			-3.166
116804.000			18.993			-3.166
116905.000			18.995			-3.166
117004.000			18.994			-3.166
117103.000			18.994			-3.166
117205.000			18.994			-3.166
117304.000			18.993			-3.166
117404.000			18.992			-3.165
117505.000			18.992			-3.165
117604.000			18.992			-3.165
117704.000			18.991			-3.165
117804.000			18.992			-3.165
117904.000			18.991			-3.165
118003.000			18.990			-3.165
118105.000			18.990			-3.165
118204.000			18.990			-3.165
118304.000			18.989			-3.165
118405.000			18.988			-3.165
118504.000			18.988			-3.165
118604.000			18.988			-3.165
118704.000			18.987			-3.165
118804.000			18.987			-3.165
118904.000			18.987			-3.164
119005.000			18.986			-3.164
119104.000			18.986			-3.164
119204.000			18.985			-3.164
119305.000			18.985			-3.164
119404.000			18.984			-3.164
119504.000			18.984			-3.164
119604.000			18.984			-3.164
119704.000			18.983			-3.164
119804.000			18.982			-3.164
119905.000			18.982			-3.164
120004.000			18.982			-3.164
120105.000			18.981			-3.164
120204.000			18.980			-3.163
120303.000			18.980			-3.163
120405.000			18.981			-3.163
120504.000			18.979			-3.163
120604.000			18.979			-3.163
120705.000			18.978			-3.163
120804.000			18.978			-3.163
120904.000			18.977			-3.163
121005.000			18.978			-3.163
121104.000			18.977			-3.163
121203.000			18.976			-3.163
121305.000			18.975			-3.163
121404.000			18.974			-3.162
121504.000			18.974			-3.162
121605.000			18.974			-3.162
121704.000			18.973			-3.162
121804.000			18.973			-3.162
121904.000			18.972			-3.162
122004.000			18.972			-3.162
122103.000			18.971			-3.162
122205.000			18.970			-3.162
122304.000			18.970			-3.162
122404.000			18.970			-3.162
122505.000			18.970			-3.162
122604.000			18.970			-3.162
122704.000			18.969			-3.161
122804.000			18.969			-3.161
122904.000			18.970			-3.162
123004.000			18.968			-3.161
123105.000			18.968			-3.161
123204.000			18.968			-3.161
123305.000			18.969			-3.161
123404.000			18.969			-3.161
123503.000			18.969			-3.161
123605.000			18.969			-3.161
123703.000			18.969			-3.161
123804.000			18.968			-3.161
123905.000			18.968			-3.161
124004.000			18.968			-3.161
124104.000			18.968			-3.161
124205.000			18.968			-3.161
124304.000			18.968			-3.161
124403.000			18.968			-3.161
124505.000			18.968			-3.161
124604.000			18.967			-3.161
124704.000			18.966			-3.161
124805.000			18.966			-3.161
124904.000			18.967			-3.161
125004.000			18.967			-3.161
125105.000			18.967			-3.161
125204.000			18.966			-3.161
125303.000			18.966			-3.161
125405.000			18.965			-3.161
125504.000			18.964			-3.161
125604.000			18.965			-3.161
125705.000			18.965			-3.161
125804.000			18.964			-3.161
125904.000			18.964			-3.161
126004.000			18.963			-3.161
126104.000			18.962			-3.160
126203.000			18.962			-3.160
126305.000			18.960			-3.160
126404.000			18.961			-3.160
126505.000			18.961			-3.160
126604.000			18.961			-3.160
126704.000			18.960			-3.160
126805.000			18.960			-3.160
126903.000			18.960			-3.160
127004.000			18.958			-3.160
127105.000			18.958			-3.160
127204.000			18.957			-3.160
127304.000			18.957			-3.160
127405.000			18.957			-3.160
127504.000			18.957			-3.159
127603.000			18.957			-3.160
127705.000			18.956			-3.159
127803.000			18.955			-3.159
127904.000			18.955			-3.159
128005.000			18.954			-3.159
128104.000			18.954			-3.159
128204.000			18.954			-3.159
128305.000			18.953			-3.159
128404.000			18.953			-3.159
128503.000			18.953			-3.159
128605.000			18.954			-3.159
128704.000			18.953			-3.159
128804.000			18.953			-3.159
128905.000			18.953			-3.159
129004.000			18.953			-3.159
129104.000			18.952			-3.159
129205.000			18.951			-3.158
129304.000			18.950			-3.158
129403.000			18.950			-3.158
129505.000			18.950			-3.158
129604.000			18.950			-3.158
129705.000			18.950			-3.158
129804.000			18.950			-3.158
129904.000			18.949			-3.158
130005.000			18.950			-3.158
130104.000			18.949			-3.158
130204.000			18.948			-3.158
130304.000			18.947			-3.158
130404.000			18.947			-3.158
130504.000			18.947			-3.158
130605.000			18.948			-3.158
130704.000			18.946			-3.158
130804.000			18.946			-3.158
130905.000			18.945			-3.158
131003.000			18.945			-3.157
131104.000			18.945			-3.157
131205.000			18.944			-3.157
131304.000			18.944			-3.157
131404.000			18.944			-3.157
131505.000			18.943			-3.157
131604.000			18.943			-3.157
131704.000			18.943			-3.157
131805.000			18.943			-3.157
131903.000			18.942			-3.157
132004.000			18.940			-3.157
132105.000			18.940			-3.157
132204.000			18.939			-3.157
132304.000			18.940			-3.157
132405.000			18.940			-3.157
132504.000			18.939			-3.157
132604.000			18.940			-3.157
132705.000			18.939			-3.157
132803.000			18.938			-3.156
132905.000			18.937			-3.156
133004.000			18.937			-3.156
133104.000			18.937			-3.156
133205.000			18.937			-3.156
133304.000			18.936			-3.156
133404.000			18.935			-3.156
133505.000			18.936			-3.156
133604.000			18.935			-3.156
133703.000			18.934			-3.156
133805.000			18.934			-3.156
133904.000			18.933			-3.155
134004.000			18.933			-3.156
134105.000			18.932			-3.155
134204.000			18.932			-3.155
134304.000			18.932			-3.155
134405.000			18.931			-3.155
134504.000			18.931			-3.155
134603.000			18.931			-3.155
134705.000			18.931			-3.155
134803.000			18.930			-3.155
134904.000			18.929			-3.155
135005.000			18.929			-3.155
135104.000			18.928			-3.155
135204.000			18.928			-3.155
135305.000			18.927			-3.154
135404.000			18.926			-3.154
135503.000			18.927			-3.154
135605.000			18.926			-3.154
135703.000			18.927			-3.155
135804.000			18.925			-3.154
135905.000			18.924			-3.154
136004.000			18.924			-3.154
136105.000			18.924			-3.154
136204.000			18.924			-3.154
136304.000			18.924			-3.154
136404.000			18.924			-3.154
136504.000			18.924			-3.154
136603.000			18.923			-3.154
136705.000			18.922			-3.154
136804.000			18.922			-3.154
136904.000			18.921			-3.154
137005.000			18.922			-3.154
137104.000			18.921			-3.154
137204.000			18.921			-3.153
137304.000			18.920			-3.153
137404.000			18.921			-3.153
137503.000			18.920			-3.153
137605.000			18.919			-3.153
137704.000			18.918			-3.153
137804.000			18.919			-3.153
137905.000			18.919			-3.153
138004.000			18.918			-3.153
138104.000			18.918			-3.153
138205.000			18.917			-3.153
138304.000			18.917			-3.153
138403.000			18.917			-3.153
138505.000			18.916			-3.153
138604.000			18.916			-3.153
138704.000			18.916			-3.153
138805.000			18.915			-3.153
138904.000			18.915			-3.153
139004.000			18.916			-3.153
139105.000			18.914			-3.152
139204.000			18.914			-3.152
139303.000			18.913			-3.152
139404.000			18.913			-3.152
139503.000			18.913			-3.152
139605.000			18.912			-3.152
139704.000			18.912			-3.152
139804.000			18.913			-3.152
139905.000			18.912			-3.152
140004.000			18.912			-3.152
140104.000			18.912			-3.152
140204.000			18.912			-3.152
140304.000			18.910			-3.152
140403.000			18.909			-3.151
140505.000			18.908			-3.151
140604.000			18.908			-3.151
140704.000			18.910			-3.152
140805.000			18.909			-3.151
140904.000			18.909			-3.151
141004.000			18.908			-3.151
141104.000			18.908			-3.151
141204.000			18.908			-3.151
141303.000			18.907			-3.151
141405.000			18.907			-3.151
141504.000			18.906			-3.151
141604.000			18.908			-3.151
141705.000			18.907			-3.151
141804.000			18.906			-3.151
141904.000			18.906			-3.151
142005.000			18.905			-3.151
142104.000			18.905			-3.151
142203.000			18.905			-3.151
142305.000			18.903			-3.151
142404.000			18.903			-3.150
142505.000			18.903			-3.150
142604.000			18.904			-3.151
142704.000			18.904			-3.151
142805.000			18.903			-3.150
142904.000			18.902			-3.150
143004.000			18.901			-3.150
143104.000			18.901			-3.150
143204.000			18.901			-3.150
143304.000			18.901			-3.150
143405.000			18.902			-3.150
143504.000			18.902			-3.150
143604.000			18.902			-3.150
143705.000			18.901			-3.150
143803.000			18.900			-3.150
143904.000			18.899			-3.150
144004.000			18.899			-3.150
144104.000			18.899			-3.150
144204.000			18.899			-3.150
144305.000			18.899			-3.150
144404.000			18.899			-3.150
144504.000			18.898			-3.150
144605.000			18.898			-3.150
144704.000			18.896			-3.149
144804.000			18.896			-3.149
144904.000			18.896			-3.149
145004.000			18.896			-3.149
145104.000			18.897			-3.149
145205.000			18.898			-3.150
145304.000			18.898			-3.150
145404.000			18.897			-3.149
145505.000			18.896			-3.149
145604.000			18.898			-3.150
145705.000			18.897			-3.150
145804.000			18.898			-3.150
145904.000			18.897			-3.150
146004.000			18.898			-3.150
146104.000			18.898			-3.150
146204.000			18.898			-3.150
146305.000			18.898			-3.150
146404.000			18.897			-3.150
146504.000			18.897			-3.149
146605.000			18.897			-3.150
146704.000			18.897			-3.149
146804.000			18.897			-3.149
146904.000			18.897			-3.150
147004.000			18.897			-3.149
147103.000			18.897			-3.150
147205.000			18.897			-3.149
147304.000			18.896			-3.149
147404.000			18.896			-3.149
147505.000			18.895			-3.149
147604.000			18.895			-3.149
147704.000			18.895			-3.149
147805.000			18.895			-3.149
147904.000			18.894			-3.149
148003.000			18.893			-3.149
148105.000			18.893			-3.149
148204.000			18.893			-3.149
148304.000			18.893			-3.149
148405.000			18.892			-3.149
148504.000			18.891			-3.149
148604.000			18.890			-3.148
148705.000			18.890			-3.148
148804.000			18.889			-3.148
148903.000			18.888			-3.148
149004.000			18.888			-3.148
149103.000			18.888			-3.148
149205.000			18.888			-3.148
149304.000			18.888			-3.148
149404.000			18.887			-3.148
149505.000			18.887			-3.148
149604.000			18.887			-3.148
149704.000			18.886			-3.148
149805.000			18.885			-3.148
149904.000			18.886			-3.148
150003.000			18.887			-3.148
150105.000			18.886			-3.148
150204.000			18.884			-3.147
150304.000			18.884			-3.147
150405.000			18.884			-3.147
150504.000			18.883			-3.147
150604.000			18.882			-3.147
150705.000			18.882			-3.147
150804.000			18.884			-3.147
150903.000			18.882			-3.147
151005.000			18.882			-3.147
151103.000			18.879			-3.147
151204.000			18.880			-3.147
151305.000			18.881			-3.147
151404.000			18.880			-3.147
151504.000			18.880			-3.147
151605.000			18.879			-3.147
151704.000			18.881			-3.147
151803.000			18.880			-3.147
151905.000			18.880			-3.147
152003.000			18.879			-3.147
152105.000			18.879			-3.147
152204.000			18.878			-3.146
152304.000			18.878			-3.146
152405.000			18.878			-3.146
152504.000			18.878			-3.146
152604.000			18.878			-3.146
152705.000			18.879			-3.146
152804.000			18.878			-3.146
152903.000			18.878			-3.146
153005.000			18.878			-3.146
153104.000			18.878			-3.146
153204.000			18.877			-3.146
153305.000			18.877			-3.146
153404.000			18.877			-3.146
153504.000			18.876			-3.146
153605.000			18.876			-3.146
153704.000			18.876			-3.146
153804.000			18.875			-3.146
153905.000			18.874			-3.146
154003.000			18.874			-3.146
154104.000			18.874			-3.146
154205.000			18.873			-3.146
154304.000			18.873			-3.145
154404.000			18.873			-3.146
154505.000			18.873			-3.146
154604.000			18.871			-3.145
154704.000			18.872			-3.145
154805.000			18.872			-3.145
154903.000			18.871			-3.145
155004.000			18.870			-3.145
155105.000			18.870			-3.145
155204.000			18.870			-3.145
155305.000			18.868			-3.145
155404.000			18.868			-3.145
155504.000			18.868			-3.145
155605.000			18.868			-3.145
155704.000			18.868			-3.145
155804.000			18.867			-3.144
155905.000			18.866			-3.144
156003.000			18.867			-3.144
156104.000			18.867			-3.144
156205.000			18.864			-3.144
156304.000			18.864			-3.144
156404.000			18.865			-3.144
156505.000			18.865			-3.144
156604.000			18.865			-3.144
156704.000			18.866			-3.144
156805.000			18.864			-3.144
156903.000			18.864			-3.144
157004.000			18.865			-3.144
157104.000			18.864			-3.144
157204.000			18.863			-3.144
157304.000			18.863			-3.144
157405.000			18.863			-3.144
157504.000			18.862			-3.144
157604.000			18.862			-3.144
157705.000			18.862			-3.144
157803.000			18.862			-3.144
157904.000			18.861			-3.144
158004.000			18.861			-3.143
158104.000			18.860			-3.143
158204.000			18.859			-3.143
158305.000			18.860			-3.143
158404.000			18.860			-3.143
158505.000			18.859			-3.143
158604.000			18.859			-3.143
158704.000			18.859			-3.143
158805.000			18.859			-3.143
158903.000			18.858			-3.143
159004.000			18.857			-3.143
159105.000			18.857			-3.143
159204.000			18.857			-3.143
159304.000			18.856			-3.143
159405.000			18.857			-3.143
159504.000			18.858			-3.143
159604.000			18.855			-3.143
159705.000			18.856			-3.143
159804.000			18.856			-3.143
159904.000			18.856			-3.143
160004.000			18.856			-3.143
160104.000			18.855			-3.142
160204.000			18.854			-3.142
160305.000			18.854			-3.142
160404.000			18.854			-3.142
160504.000			18.854			-3.142
160605.000			18.854			-3.142
160704.000			18.854			-3.142
160804.000			18.852			-3.142
160904.000			18.851			-3.142
161004.000			18.852			-3.142
161104.000			18.852			-3.142
161205.000			18.852			-3.142
161304.000			18.852			-3.142
161404.000			18.851			-3.142
161505.000			18.850			-3.142
161604.000			18.850			-3.142
161705.000			18.850			-3.142
161803.000			18.850			-3.142
161904.000			18.849			-3.142
162005.000			18.849			-3.142
162104.000			18.849			-3.142
162204.000			18.849			-3.142
162305.000			18.849			-3.142
162404.000			18.848			-3.141
162504.000			18.848			-3.141
162605.000			18.847			-3.141
162703.000			18.846			-3.141
162804.000			18.846			-3.141
162905.000			18.846			-3.141
163004.000			18.847			-3.141
163104.000			18.847			-3.141
163205.000			18.845			-3.141
163304.000			18.845			-3.141
163404.000			18.844			-3.141
163505.000			18.845			-3.141
163603.000			18.846			-3.141
163704.000			18.845			-3.141
163804.000			18.844			-3.141
163904.000			18.845			-3.141
164004.000			18.845			-3.141
164105.000			18.844			-3.141
164204.000			18.844			-3.141
164304.000			18.843			-3.141
164405.000			18.842			-3.140
164503.000			18.841			-3.140
164604.000			18.843			-3.140
164704.000			18.842			-3.140
164804.000			18.842			-3.140
164905.000			18.842			-3.140
165004.000			18.841			-3.140
165104.000			18.841			-3.140
165205.000			18.841			-3.140
165304.000			18.840			-3.140
165404.000			18.839			-3.140
165505.000			18.839			-3.140
165603.000			18.839			-3.140
165704.000			18.839			-3.140
165805.000			18.839			-3.140
165904.000			18.839			-3.140
166004.000			18.838			-3.140
166105.000			18.838			-3.140
166204.000			18.838			-3.140
166304.000			18.837			-3.139
166405.000			18.837			-3.139
166503.000			18.838			-3.140
166604.000			18.837			-3.139
166705.000			18.837			-3.139
166804.000			18.836			-3.139
166904.000			18.836			-3.139
167005.000			18.835			-3.139
167104.000			18.835			-3.139
167204.000			18.835			-3.139
167305.000			18.835			-3.139
167404.000			18.834			-3.139
167504.000			18.833			-3.139
167604.000			18.834			-3.139
167704.000			18.834			-3.139
167804.000			18.833			-3.139
167905.000			18.833			-3.139
168004.000			18.833			-3.139
168105.000			18.834			-3.139
168204.000			18.834			-3.139
168304.000			18.833			-3.139
168405.000			18.833			-3.139
168503.000			18.833			-3.139
168604.000			18.833			-3.139
168705.000			18.833			-3.139
168804.000			18.833			-3.139
168904.000			18.832			-3.139
169005.000			18.832			-3.139
169104.000			18.832			-3.139
169204.000			18.830			-3.138
169305.000			18.830			-3.138
169403.000			18.830			-3.138
169504.000			18.830			-3.138
169604.000			18.830			-3.138
169704.000			18.829			-3.138
169804.000			18.829			-3.138
169905.000			18.830			-3.138
170004.000			18.828			-3.138
170104.000			18.828			-3.138
170205.000			18.827			-3.138
170304.000			18.827			-3.138
170404.000			18.827			-3.138
170504.000			18.827			-3.138
170604.000			18.825			-3.138
170704.000			18.826			-3.138
170805.000			18.826			-3.138
170904.000			18.826			-3.138
171004.000			18.826			-3.138
171105.000			18.826			-3.138
171204.000			18.825			-3.138
171305.000			18.825			-3.137
171403.000			18.825			-3.137
171504.000			18.824			-3.137
171605.000			18.825			-3.138
171704.000			18.825			-3.138
171804.000			18.825			-3.138
171905.000			18.825			-3.137
172004.000			18.826			-3.138
172104.000			18.826			-3.138
172205.000			18.826			-3.138
172303.000			18.826			-3.138
172404.000			18.825			-3.138
172505.000			18.825			-3.138
172604.000			18.826			-3.138
172704.000			18.825			-3.138
172805.000			18.825			-3.137
172904.000			18.824			-3.137
173004.000			18.824			-3.137
173105.000			18.824			-3.137
173203.000			18.823			-3.137
173304.000			18.823			-3.137
173404.000			18.824			-3.137
173504.000			18.823			-3.137
173604.000			18.823			-3.137
173705.000			18.823			-3.137
173804.000			18.822			-3.137
173904.000			18.822			-3.137
174005.000			18.822			-3.137
174103.000			18.821			-3.137
174204.000			18.821			-3.137
174304.000			18.821			-3.137
174404.000			18.820			-3.137
174505.000			18.819			-3.136
174604.000			18.819			-3.136
174704.000			18.818			-3.136
174805.000			18.818			-3.136
174904.000			18.818			-3.136
175004.000			18.818			-3.136
175105.000			18.818			-3.136
175203.000			18.817			-3.136
175304.000			18.817			-3.136
175405.000			18.817			-3.136
175504.000			18.817			-3.136
175604.000			18.815			-3.136
175705.000			18.814			-3.136
175804.000			18.814			-3.136
175904.000			18.814			-3.136
176005.000			18.814			-3.136
176103.000			18.814			-3.136
176204.000			18.814			-3.136
176305.000			18.814			-3.136
176404.000			18.813			-3.136
176504.000			18.814			-3.136
176605.000			18.813			-3.135
176704.000			18.811			-3.135
176804.000			18.812			-3.135
176905.000			18.813			-3.136
177003.000			18.814			-3.136
177104.000			18.812			-3.135
177205.000			18.811			-3.135
177304.000			18.811			-3.135
177404.000			18.811			-3.135
177505.000			18.810			-3.135
177604.000			18.811			-3.135
177705.000			18.810			-3.135
177804.000			18.812			-3.135
177903.000			18.811			-3.135
178005.000			18.811			-3.135
178103.000			18.811			-3.135
178204.000			18.810			-3.135
178305.000			18.809			-3.135
178404.000			18.809			-3.135
178504.000			18.810			-3.135
178605.000			18.810			-3.135
178704.000			18.810			-3.135
178804.000			18.809			-3.135
178905.000			18.808			-3.135
179003.000			18.808			-3.135
179104.000			18.808			-3.135
179205.000			18.807			-3.134
179304.000			18.808			-3.135
179404.000			18.808			-3.135
179505.000			18.807			-3.135
179604.000			18.808			-3.135
179704.000			18.807			-3.135
179805.000			18.807			-3.135
179903.000			18.807			-3.135
180004.000			18.808			-3.135
180104.000			18.807			-3.134
180204.000			18.808			-3.135
180304.000			18.808			-3.135
180405.000			18.807			-3.135
180504.000			18.806			-3.134
180604.000			18.807			-3.134
180705.000			18.807			-3.135
180804.000			18.807			-3.134
180905.000			18.806			-3.134
181003.000			18.806			-3.134
181104.000			18.807			-3.135
181205.000			18.808			-3.135
181304.000			18.807			-3.134
181404.000			18.805			-3.134
181505.000			18.806			-3.134
181604.000			18.805			-3.134
181704.000			18.805			-3.134
181805.000			18.804			-3.134
181903.000			18.803			-3.134
182004.000			18.803			-3.134
182105.000			18.803			-3.134
182204.000			18.802			-3.134
182304.000			18.801			-3.134
182405.000			18.802			-3.134
182504.000			18.802			-3.134
182604.000			18.801			-3.134
182705.000			18.800			-3.133
182803.000			18.800			-3.133
182904.000			18.799			-3.133
183004.000			18.797			-3.133
183104.000			18.797			-3.133
183204.000			18.798			-3.133
183305.000			18.798			-3.133
183404.000			18.798			-3.133
183504.000			18.798			-3.133
183605.000			18.797			-3.133
183704.000			18.796			-3.133
183804.000			18.796			-3.133
183904.000			18.796			-3.133
184004.000			18.796			-3.133
184105.000			18.795			-3.132
184204.000			18.795			-3.133
184304.000			18.795			-3.132
184405.000			18.794			-3.132
184504.000			18.794			-3.132
184604.000			18.793			-3.132
184705.000			18.793			-3.132
184804.000			18.793			-3.132
184904.000			18.794			-3.132
185004.000			18.794			-3.132
185104.000			18.793			-3.132
185204.000			18.792			-3.132
185305.000			18.793			-3.132
185404.000			18.793			-3.132
185504.000			18.794			-3.132
185605.000			18.793			-3.132
185704.000			18.793			-3.132
185804.000			18.793			-3.132
185904.000			18.793			-3.132
186004.000			18.793			-3.132
186103.000			18.793			-3.132
186205.000			18.794			-3.132
186304.000			18.794			-3.132
186404.000			18.795			-3.132
186505.000			18.794			-3.132
186604.000			18.793			-3.132
186704.000			18.793			-3.132
186805.000			18.793			-3.132
186904.000			18.792			-3.132
187003.000			18.792			-3.132
187105.000			18.791			-3.132
187204.000			18.791			-3.132
187305.000			18.792			-3.132
187404.000			18.791			-3.132
187504.000			18.791			-3.132
187605.000			18.790			-3.132
187704.000			18.790			-3.132
187804.000			18.790			-3.132
187905.000			18.790			-3.132
188004.000			18.789			-3.131
188103.000			18.788			-3.131
188205.000			18.788			-3.131
188304.000			18.788			-3.131
188404.000			18.788			-3.131
188505.000			18.789			-3.131
188604.000			18.788			-3.131
188704.000			18.788			-3.131
188805.000			18.788			-3.131
188904.000			18.788			-3.131
189004.000			18.788			-3.131
189105.000			18.787			-3.131
189203.000			18.787			-3.131
189304.000			18.787			-3.131
189405.000			18.787			-3.131
189504.000			18.786			-3.131
189604.000			18.786			-3.131
189705.000			18.785			-3.131
189804.000			18.785			-3.131
189904.000			18.786			-3.131
190005.000			18.786			-3.131
190104.000			18.784			-3.131
190204.000			18.783			-3.131
190304.000			18.782			-3.130
190404.000			18.783			-3.130
190505.000			18.783			-3.131
190604.000			18.782			-3.130
190704.000			18.782			-3.130
190805.000			18.783			-3.130
190904.000			18.782			-3.130
191004.000			18.782			-3.130
191105.000			18.782			-3.130
191203.000			18.782			-3.130
191304.000			18.781			-3.130
191405.000			18.781			-3.130
191504.000			18.781			-3.130
191604.000			18.782			-3.130
191705.000			18.781			-3.130
191804.000			18.781			-3.130
191904.000			18.781			-3.130
192005.000			18.779			-3.130
192104.000			18.780			-3.130
192204.000			18.780			-3.130
192304.000			18.780			-3.130
192404.000			18.781			-3.130
192504.000			18.780			-3.130
192605.000			18.779			-3.130
192704.000			18.778			-3.130
192804.000			18.778			-3.130
192905.000			18.779			-3.130
193004.000			18.780			-3.130
193104.000			18.778			-3.130
193204.000			18.777			-3.130
193304.000			18.777			-3.129
193403.000			18.776			-3.129
193505.000			18.776			-3.129
193604.000			18.776			-3.129
193705.000			18.777			-3.129
193804.000			18.775			-3.129
193904.000			18.774			-3.129
194005.000			18.774			-3.129
194104.000			18.773			-3.129
194204.000			18.773			-3.129
194304.000			18.774			-3.129
194404.000			18.773			-3.129
194503.000			18.771			-3.129
194605.000			18.771			-3.129
194704.000			18.771			-3.129
194804.000			18.771			-3.128
194905.000			18.772			-3.129
195004.000			18.772			-3.129
195104.000			18.771			-3.128
195204.000			18.771			-3.129
195304.000			18.771			-3.128
195403.000			18.771			-3.128
195505.000			18.771			-3.128
195604.000			18.771			-3.128
195704.000			18.770			-3.128
195805.000			18.771			-3.129
195904.000			18.772			-3.129
196004.000			18.770			-3.128
196105.000			18.770			-3.128
196204.000			18.771			-3.129
196303.000			18.770			-3.128
196405.000			18.769			-3.128
196504.000			18.770			-3.128
196604.000			18.771			-3.128
196705.000			18.770			-3.128
196804.000			18.769			-3.128
196905.000			18.769			-3.128
197004.000			18.769			-3.128
197104.000			18.768			-3.128
197204.000			18.769			-3.128
197304.000			18.769			-3.128
197403.000			18.768			-3.128
197505.000			18.768			-3.128
197604.000			18.768			-3.128
197704.000			18.768			-3.128
197805.000			18.768			-3.128
197904.000			18.767			-3.128
198004.000			18.767			-3.128
198105.000			18.767			-3.128
198204.000			18.766			-3.128
198303.000			18.767			-3.128
198405.000			18.766			-3.128
198503.000			18.766			-3.128
198604.000			18.766			-3.128
198705.000			18.765			-3.127
198804.000			18.765			-3.128
198904.000			18.765			-3.127
199005.000			18.764			-3.127
199104.000			18.763			-3.127
199204.000			18.763			-3.127
199305.000			18.763			-3.127
199403.000			18.763			-3.127
199504.000			18.763			-3.127
199604.000			18.763			-3.127
199704.000			18.762			-3.127
199804.000			18.762			-3.127
199905.000			18.761			-3.127
200004.000			18.760			-3.127
200105.000			18.760			-3.127
200204.000			18.760			-3.127
200304.000			18.760			-3.127
200405.000			18.760			-3.127
200503.000			18.759			-3.127
200604.000			18.758			-3.126
200705.000			18.758			-3.126
200804.000			18.759			-3.127
200904.000			18.759			-3.127
201005.000			18.757			-3.126
201104.000			18.757			-3.126
201204.000			18.757			-3.126
201305.000			18.757			-3.126
201403.000			18.757			-3.126
201504.000			18.757			-3.126
201605.000			18.756			-3.126
201704.000			18.756			-3.126
201804.000			18.755			-3.126
201905.000			18.755			-3.126
202004.000			18.754			-3.126
202104.000			18.753			-3.126
202205.000			18.754			-3.126
202303.000			18.754			-3.126
202404.000			18.754			-3.126
202505.000			18.754			-3.126
202604.000			18.753			-3.126
202704.000			18.753			-3.126
202805.000			18.753			-3.126
202904.000			18.751			-3.125
203004.000			18.751			-3.125
203105.000			18.751			-3.125
203203.000			18.751			-3.125
203305.000			18.750			-3.125
203404.000			18.750			-3.125
203504.000			18.749			-3.125
203605.000			18.749			-3.125
203704.000			18.750			-3.125
203804.000			18.750			-3.125
203905.000			18.749			-3.125
204004.000			18.750			-3.125
204103.000			18.750			-3.125
204205.000			18.750			-3.125
204303.000			18.749			-3.125
204404.000			18.750			-3.125
204505.000			18.750			-3.125
204604.000			18.750			-3.125
204704.000			18.749			-3.125
204805.000			18.750			-3.125
204904.000			18.751			-3.125
205004.000			18.751			-3.125
205105.000			18.750			-3.125
205203.000			18.749			-3.125
205304.000			18.749			-3.125
205405.000			18.750			-3.125
205504.000			18.749			-3.125
205604.000			18.750			-3.125
205705.000			18.750			-3.125
205804.000			18.749			-3.125
205904.000			18.749			-3.125
206005.000			18.749			-3.125
206103.000			18.750			-3.125
206204.000			18.748			-3.125
206305.000			18.746			-3.124
206404.000			18.746			-3.124
206505.000			18.748			-3.125
206604.000			18.748			-3.125
206704.000			18.749			-3.125
206805.000			18.748			-3.125
206904.000			18.745			-3.124
207003.000			18.746			-3.124
207105.000			18.746			-3.124
207204.000			18.747			-3.124
207304.000			18.747			-3.124
207405.000			18.746			-3.124
207504.000			18.745			-3.124
207604.000			18.744			-3.124
207705.000			18.744			-3.124
207804.000			18.745			-3.124
207903.000			18.745			-3.124
208005.000			18.744			-3.124
208104.000			18.745			-3.124
208204.000			18.744			-3.124
208305.000			18.743			-3.124
208404.000			18.743			-3.124
208504.000			18.742			-3.124
208605.000			18.743			-3.124
208704.000			18.743			-3.124
208803.000			18.742			-3.124
208905.000			18.741			-3.123
209004.000			18.742			-3.124
209104.000			18.741			-3.124
209205.000			18.742			-3.124
209304.000			18.743			-3.124
209404.000			18.743			-3.124
209505.000			18.742			-3.124
209604.000			18.741			-3.124
209703.000			18.741			-3.123
209804.000			18.739			-3.123
209903.000			18.740			-3.123
210005.000			18.740			-3.123
210104.000			18.739			-3.123
210204.000			18.739			-3.123
210305.000			18.738			-3.123
210404.000			18.738			-3.123
210504.000			18.739			-3.123
210604.000			18.739			-3.123
210704.000			18.738			-3.123
210803.000			18.738			-3.123
210905.000			18.738			-3.123
211004.000			18.738			-3.123
211104.000			18.738			-3.123
211205.000			18.737			-3.123
211304.000			18.737			-3.123
211404.000			18.737			-3.123
211504.000			18.737			-3.123
211604.000			18.737			-3.123
211703.000			18.737			-3.123
211805.000			18.736			-3.123
211904.000			18.736			-3.123
212004.000			18.735			-3.122
212105.000			18.736			-3.123
212204.000			18.735			-3.123
212304.000			18.735			-3.122
212404.000			18.735			-3.123
212504.000			18.735			-3.123
212603.000			18.734			-3.122
212705.000			18.733			-3.122
212804.000			18.734			-3.122
212905.000			18.734			-3.122
213004.000			18.732			-3.122
213104.000			18.732			-3.122
213205.000			18.733			-3.122
213303.000			18.732			-3.122
213404.000			18.730			-3.122
213505.000			18.730			-3.122
213604.000			18.731			-3.122
213704.000			18.731			-3.122
213805.000			18.729			-3.122
213904.000			18.729			-3.121
214004.000			18.730			-3.122
214105.000			18.728			-3.121
214203.000			18.728			-3.121
214304.000			18.728			-3.121
214404.000			18.728			-3.121
214504.000			18.728			-3.121
214604.000			18.728			-3.121
214705.000			18.727			-3.121
214804.000			18.727			-3.121
214904.000			18.727			-3.121
215005.000			18.727			-3.121
215103.000			18.727			-3.121
215204.000			18.726			-3.121
215304.000			18.725			-3.121
215404.000			18.724			-3.121
215504.000			18.724			-3.121
215605.000			18.724			-3.121
215704.000			18.724			-3.121
215804.000			18.725			-3.121
215905.000			18.724			-3.121
216003.000			18.723			-3.121
216105.000			18.723			-3.120
216203.000			18.723			-3.121
216304.000			18.722			-3.120
216405.000			18.721			-3.120
216504.000			18.721			-3.120
216604.000			18.722			-3.120
216705.000			18.721			-3.120
216804.000			18.720			-3.120
216903.000			18.721			-3.120
217005.000			18.721			-3.120
217104.000			18.719			-3.120
217204.000			18.721			-3.120
217305.000			18.721			-3.120
217404.000			18.719			-3.120
217504.000			18.719			-3.120
217605.000			18.720			-3.120
217704.000			18.719			-3.120
217803.000			18.719			-3.120
217905.000			18.719			-3.120
218003.000			18.719			-3.120
218104.000			18.720			-3.120
218205.000			18.719			-3.120
218304.000			18.719			-3.120
218404.000			18.720			-3.120
218505.000			18.720			-3.120
218604.000			18.718			-3.120
218703.000			18.720			-3.120
218805.000			18.721			-3.120
218903.000			18.720			-3.120
219004.000			18.720			-3.120
219105.000			18.721			-3.120
219204.000			18.721			-3.120
219305.000			18.721			-3.120
219404.000			18.720			-3.120
219504.000			18.721			-3.120
219604.000			18.722			-3.120
219704.000			18.720			-3.120
219803.000			18.718			-3.120
219905.000			18.720			-3.120
220004.000			18.720			-3.120
220104.000			18.720			-3.120
220205.000			18.719			-3.120
220304.000			18.719			-3.120
220404.000			18.720			-3.120
220504.000			18.719			-3.120
220604.000			18.719			-3.120
220703.000			18.719			-3.120
220805.000			18.718			-3.120
220904.000			18.718			-3.120
221004.000			18.718			-3.120
221105.000			18.719			-3.120
221204.000			18.718			-3.120
221304.000			18.717			-3.120
221404.000			18.717			-3.119
221504.000			18.717			-3.120
221603.000			18.717			-3.120
221705.000			18.716			-3.119
221804.000			18.717			-3.119
221904.000			18.716			-3.119
222005.000			18.715			-3.119
222104.000			18.715			-3.119
222204.000			18.714			-3.119
222304.000			18.715			-3.119
222404.000			18.715			-3.119
222503.000			18.714			-3.119
222604.000			18.713			-3.119
222704.000			18.713			-3.119
222805.000			18.713			-3.119
222904.000			18.712			-3.119
223004.000			18.711			-3.119
223105.000			18.712			-3.119
223203.000			18.712			-3.119
223304.000			18.711			-3.119
223405.000			18.711			-3.118
223504.000			18.710			-3.118
223604.000			18.709			-3.118
223705.000			18.708			-3.118
223804.000			18.709			-3.118
223904.000			18.709			-3.118
224005.000			18.709			-3.118
224103.000			18.710			-3.118
224204.000			18.709			-3.118
224305.000			18.709			-3.118
224404.000			18.709			-3.118
224504.000			18.709			-3.118
224605.000			18.709			-3.118
224704.000			18.710			-3.118
224804.000			18.709			-3.118
224905.000			18.708			-3.118
225003.000			18.709			-3.118
225104.000			18.708			-3.118
225205.000			18.708			-3.118
225304.000			18.708			-3.118
225404.000			18.708			-3.118
225505.000			18.709			-3.118
225604.000			18.708			-3.118
225705.000			18.708			-3.118
225804.000			18.708			-3.118
225903.000			18.708			-3.118
226005.000			18.707			-3.118
226104.000			18.707			-3.118
226204.000			18.707			-3.118
226305.000			18.706			-3.118
226404.000			18.706			-3.118
226504.000			18.707			-3.118
226605.000			18.707			-3.118
226704.000			18.706			-3.118
226803.000			18.706			-3.118
226905.000			18.706			-3.118
227004.000			18.706			-3.118
227104.000			18.706			-3.118
227205.000			18.705			-3.118
227304.000			18.705			-3.117
227404.000			18.705			-3.117
227505.000			18.705			-3.117
227604.000			18.704			-3.117
227703.000			18.703			-3.117
227805.000			18.704			-3.117
227904.000			18.704			-3.117
228004.000			18.704			-3.117
228105.000			18.704			-3.117
228204.000			18.704			-3.117
228304.000			18.703			-3.117
228405.000			18.703			-3.117
228504.000			18.703			-3.117
228603.000			18.701			-3.117
228705.000			18.702			-3.117
228804.000			18.701			-3.117
228905.000			18.700			-3.117
229004.000			18.701			-3.117
229104.000			18.700			-3.117
229205.000			18.699			-3.117
229304.000			18.699			-3.117
229404.000			18.699			-3.117
229504.000			18.698			-3.116
229604.000			18.697			-3.116
229703.000			18.697			-3.116
229805.000			18.697			-3.116
229904.000			18.697			-3.116
230004.000			18.696			-3.116
230105.000			18.696			-3.116
230204.000			18.695			-3.116
230304.000			18.697			-3.116
230405.000			18.696			-3.116
230504.000			18.696			-3.116
230603.000			18.696			-3.116
230705.000			18.696			-3.116
230804.000			18.695			-3.116
230904.000			18.693			-3.115
231005.000			18.692			-3.115
231104.000			18.693			-3.116
231204.000			18.693			-3.116
231305.000			18.692			-3.115
231404.000			18.692			-3.115
231503.000			18.693			-3.115
231605.000			18.692			-3.115
231704.000			18.692			-3.115
231804.000			18.692			-3.115
231905.000			18.693			-3.115
232004.000			18.693			-3.116
232105.000			18.692			-3.115
232204.000			18.691			-3.115
232304.000			18.692			-3.115
232404.000			18.691			-3.115
232504.000			18.691			-3.115
232603.000			18.690			-3.115
232705.000			18.691			-3.115
232804.000			18.691			-3.115
232904.000			18.691			-3.115
233005.000			18.690			-3.115
233104.000			18.690			-3.115
233204.000			18.690			-3.115
233304.000			18.689			-3.115
233404.000			18.689			-3.115
233503.000			18.689			-3.115
233605.000			18.688			-3.115
233704.000			18.689			-3.115
233804.000			18.687			-3.114
233905.000			18.687			-3.115
234004.000			18.688			-3.115
234104.000			18.688			-3.115
234205.000			18.687			-3.114
234304.000			18.686			-3.114
234403.000			18.686			-3.114
234505.000			18.687			-3.114
234604.000			18.685			-3.114
234704.000			18.685			-3.114
234805.000			18.685			-3.114
234904.000			18.685			-3.114
235004.000			18.685			-3.114
235105.000			18.686			-3.114
235204.000			18.686			-3.114
235303.000			18.684			-3.114
235404.000			18.684			-3.114
235503.000			18.684			-3.114
235605.000			18.685			-3.114
235704.000			18.685			-3.114
235804.000			18.685			-3.114
235905.000			18.686			-3.114
236004.000			18.687			-3.114
236104.000			18.687			-3.114
236204.000			18.686			-3.114
236304.000			18.686			-3.114
236403.000			18.685			-3.114
236505.000			18.685			-3.114
236604.000			18.685			-3.114
236704.000			18.687			-3.114
236805.000			18.685			-3.114
236904.000			18.686			-3.114
237004.000			18.687			-3.114
237104.000			18.686			-3.114
237204.000			18.686			-3.114
237303.000			18.685			-3.114
237405.000			18.685			-3.114
237504.000			18.684			-3.114
237604.000			18.684			-3.114
237705.000			18.685			-3.114
237804.000			18.684			-3.114
237904.000			18.684			-3.114
238005.000			18.684			-3.114
238104.000			18.683			-3.114
238203.000			18.682			-3.114
238305.000			18.682			-3.114
238404.000			18.682			-3.114
238505.000			18.681			-3.114
238604.000			18.682			-3.114
238704.000			18.683			-3.114
238805.000			18.681			-3.113
238904.000			18.680			-3.113
239004.000			18.679			-3.113
239104.000			18.679			-3.113
239204.000			18.680			-3.113
239303.000			18.679			-3.113
239405.000			18.679			-3.113
239504.000			18.679			-3.113
239604.000			18.677			-3.113
239705.000			18.677			-3.113
239804.000			18.678			-3.113
239904.000			18.677			-3.113
240005.000			18.677			-3.113
240104.000			18.677			-3.113
240203.000			18.676			-3.113
240305.000			18.676			-3.113
240404.000			18.675			-3.113
240504.000			18.675			-3.113
240605.000			18.674			-3.112
240704.000			18.674			-3.112
240804.000			18.675			-3.112
240905.000			18.674			-3.112
241004.000			18.673			-3.112
241103.000			18.674			-3.112
241205.000			18.674			-3.112
241304.000			18.674			-3.112
241404.000			18.673			-3.112
241505.000			18.673			-3.112
241604.000			18.673			-3.112
241705.000			18.673			-3.112
241804.000			18.671			-3.112
241904.000			18.672			-3.112
242004.000			18.671			-3.112
242104.000			18.671			-3.112
242204.000			18.671			-3.112
242305.000			18.671			-3.112
242404.000			18.670			-3.112
242504.000			18.670			-3.112
242605.000			18.670			-3.112
242704.000			18.671			-3.112
242804.000			18.671			-3.112
242904.000			18.671			-3.112
243004.000			18.671			-3.112
243103.000			18.670			-3.112
243205.000			18.669			-3.112
243304.000			18.670			-3.112
243404.000			18.670			-3.112
243505.000			18.669			-3.111
243604.000			18.668			-3.111
243704.000			18.668			-3.111
243805.000			18.668			-3.111
243904.000			18.668			-3.111
244003.000			18.667			-3.111
244105.000			18.667			-3.111
244204.000			18.667			-3.111
244304.000			18.668			-3.111
244405.000			18.668			-3.111
244504.000			18.667			-3.111
244604.000			18.668			-3.111
244705.000			18.668			-3.111
244804.000			18.669			-3.112
244903.000			18.669			-3.111
245004.000			18.668			-3.111
245103.000			18.668			-3.111
245205.000			18.668			-3.111
245304.000			18.668			-3.111
245404.000			18.668			-3.111
245505.000			18.668			-3.111
245604.000			18.668			-3.111
245704.000			18.669			-3.111
245804.000			18.669			-3.111
245904.000			18.669			-3.112
246003.000			18.669			-3.111
246105.000			18.668			-3.111
246204.000			18.668			-3.111
246304.000			18.669			-3.112
246405.000			18.668			-3.111
246504.000			18.667			-3.111
246604.000			18.668			-3.111
246705.000			18.668			-3.111
246804.000			18.666			-3.111
246903.000			18.667			-3.111
247005.000			18.667			-3.111
247104.000			18.666			-3.111
247204.000			18.667			-3.111
247305.000			18.666			-3.111
247404.000			18.666			-3.111
247504.000			18.665			-3.111
247605.000			18.666			-3.111
247704.000			18.667			-3.111
247803.000			18.666			-3.111
247905.000			18.666			-3.111
248003.000			18.665			-3.111
248105.000			18.664			-3.111
248204.000			18.664			-3.111
248304.000			18.665			-3.111
248405.000			18.665			-3.111
248504.000			18.665			-3.111
248604.000			18.664			-3.111
248705.000			18.663			-3.111
248804.000			18.664			-3.111
248903.000			18.664			-3.111
249005.000			18.664			-3.111
249104.000			18.664			-3.111
249204.000			18.664			-3.111
249305.000			18.664			-3.111
249404.000			18.664			-3.111
249504.000			18.664			-3.111
249605.000			18.664			-3.111
249704.000			18.664			-3.111
249803.000			18.663			-3.111
249905.000			18.664			-3.111
250003.000			18.665			-3.111
250104.000			18.665			-3.111
250205.000			18.664			-3.111
250304.000			18.664			-3.111
250404.000			18.664			-3.111
250505.000			18.663			-3.111
250604.000			18.663			-3.111
250704.000			18.663			-3.110
250805.000			18.663			-3.111
250903.000			18.662			-3.110
251004.000			18.662			-3.110
251105.000			18.663			-3.110
251204.000			18.662			-3.110
251305.000			18.661			-3.110
251404.000			18.662			-3.110
251504.000			18.662			-3.110
251605.000			18.661			-3.110
251704.000			18.662			-3.110
251803.000			18.663			-3.110
251905.000			18.661			-3.110
252004.000			18.661			-3.110
252104.000			18.662			-3.110
252205.000			18.661			-3.110
252304.000			18.660			-3.110
252404.000			18.660			-3.110
252505.000			18.660			-3.110
252604.000			18.661			-3.110
252703.000			18.659			-3.110
252805.000			18.660			-3.110
252904.000			18.659			-3.110
253004.000			18.658			-3.110
253105.000			18.658			-3.110
253204.000			18.658			-3.110
253304.000			18.657			-3.110
253405.000			18.657			-3.109
253504.000			18.657			-3.109
253603.000			18.657			-3.109
253705.000			18.657			-3.110
253803.000			18.657			-3.109
253904.000			18.656			-3.109
254005.000			18.657			-3.109
254104.000			18.656			-3.109
254204.000			18.655			-3.109
254305.000			18.655			-3.109
254404.000			18.655			-3.109
254505.000			18.655			-3.109
254604.000			18.655			-3.109
254703.000			18.654			-3.109
254805.000			18.653			-3.109
254904.000			18.654			-3.109
255004.000			18.654			-3.109
255105.000			18.654			-3.109
255204.000			18.653			-3.109
255304.000			18.652			-3.109
255405.000			18.653			-3.109
255504.000			18.652			-3.109
255603.000			18.652			-3.109
255705.000			18.651			-3.108
255804.000			18.650			-3.108
255904.000			18.651			-3.108
256005.000			18.651			-3.108
256104.000			18.652			-3.109
256204.000			18.651			-3.109
256305.000			18.652			-3.109
256404.000			18.651			-3.108
256503.000			18.650			-3.108
256605.000			18.650			-3.108
256704.000			18.649			-3.108
256804.000			18.650			-3.108
256905.000			18.648			-3.108
257004.000			18.648			-3.108
257104.000			18.648			-3.108
257205.000			18.648			-3.108
257304.000			18.648			-3.108
257404.000			18.647			-3.108
257505.000			18.647			-3.108
257603.000			18.647			-3.108
257705.000			18.648			-3.108
257804.000			18.648			-3.108
257904.000			18.649			-3.108
258005.000			18.649			-3.108
258104.000			18.648			-3.108
258204.000			18.647			-3.108
258305.000			18.648			-3.108
258404.000			18.649			-3.108
258503.000			18.647			-3.108
258605.000			18.647			-3.108
258703.000			18.648			-3.108
258804.000			18.648			-3.108
258905.000			18.647			-3.108
259004.000			18.647			-3.108
259104.000			18.646			-3.108
259205.000			18.647			-3.108
259304.000			18.647			-3.108
259404.000			18.647			-3.108
259505.000			18.646			-3.108
259603.000			18.645			-3.108
259704.000			18.645			-3.108
259805.000			18.645			-3.108
259904.000			18.643			-3.107
260004.000			18.644			-3.107
260105.000			18.644			-3.107
260204.000			18.644			-3.107
260304.000			18.643			-3.107
260405.000			18.643			-3.107
260503.000			18.642			-3.107
260604.000			18.642			-3.107
260705.000			18.642			-3.107
260804.000			18.642			-3.107
260905.000			18.642			-3.107
261004.000			18.642			-3.107
261104.000			18.641			-3.107
261205.000			18.640			-3.107
261304.000			18.639			-3.107
261403.000			18.641			-3.107
261505.000			18.641			-3.107
261604.000			18.640			-3.107
261704.000			18.640			-3.107
261805.000			18.640			-3.107
261904.000			18.639			-3.107
262004.000			18.639			-3.106
262105.000			18.639			-3.106
262204.000			18.638			-3.106
262303.000			18.639			-3.106
262405.000			18.638			-3.106
262504.000			18.637			-3.106
262604.000			18.638			-3.106
262705.000			18.638			-3.106
262804.000			18.638			-3.106
262904.000			18.638			-3.106
263005.000			18.637			-3.106
263104.000			18.637			-3.106
263203.000			18.636			-3.106
263305.000			18.636			-3.106
263403.000			18.636			-3.106
263504.000			18.636			-3.106
263605.000			18.637			-3.106
263704.000			18.636			-3.106
263804.000			18.635			-3.106
263905.000			18.634			-3.106
264004.000			18.634			-3.106
264105.000			18.635			-3.106
264204.000			18.634			-3.106
264303.000			18.634			-3.106
264405.000			18.634			-3.106
264504.000			18.634			-3.106
264604.000			18.634			-3.106
264705.000			18.635			-3.106
264804.000			18.635			-3.106
264904.000			18.634			-3.106
265005.000			18.634			-3.106
265104.000			18.634			-3.106
265203.000			18.634			-3.106
265305.000			18.634			-3.106
265404.000			18.633			-3.105
265504.000			18.632			-3.105
265605.000			18.632			-3.105
265704.000			18.632			-3.105
265804.000			18.632			-3.105
265905.000			18.631			-3.105
266004.000			18.630			-3.105
266103.000			18.630			-3.105
266205.000			18.631			-3.105
266304.000			18.630			-3.105
266404.000			18.630			-3.105
266505.000			18.630			-3.105
266604.000			18.630			-3.105
266704.000			18.629			-3.105
266805.000			18.629			-3.105
266904.000			18.630			-3.105
267003.000			18.630			-3.105
267105.000			18.629			-3.105
267204.000			18.630			-3.105
267305.000			18.629			-3.105
267404.000			18.629			-3.105
267504.000			18.629			-3.105
267605.000			18.629			-3.105
267704.000			18.628			-3.105
267804.000			18.629			-3.105
267904.000			18.628			-3.105
268004.000			18.628			-3.105
268103.000			18.628			-3.105
268205.000			18.627			-3.105
268304.000			18.627			-3.104
268404.000			18.627			-3.104
268505.000			18.627			-3.104
268604.000			18.627			-3.104
268704.000			18.627			-3.104
268805.000			18.626			-3.104
268904.000			18.625			-3.104
269003.000			18.625			-3.104
269105.000			18.625			-3.104
269204.000			18.626			-3.104
269304.000			18.624			-3.104
269405.000			18.626			-3.104
269504.000			18.625			-3.104
269604.000			18.624			-3.104
269705.000			18.625			-3.104
269804.000			18.625			-3.104
269903.000			18.624			-3.104
270005.000			18.624			-3.104
270104.000			18.623			-3.104
270204.000			18.625			-3.104
270305.000			18.625			-3.104
270404.000			18.625			-3.104
270505.000			18.626			-3.104
270604.000			18.626			-3.104
270704.000			18.626			-3.104
270804.000			18.625			-3.104
270904.000			18.624			-3.104
271003.000			18.624			-3.104
271105.000			18.625			-3.104
271204.000			18.624			-3.104
271304.000			18.624			-3.104
271405.000			18.623			-3.104
271504.000			18.623			-3.104
271604.000			18.623			-3.104
271704.000			18.623			-3.104
271804.000			18.623			-3.104
271904.000			18.623			-3.104
272005.000			18.623			-3.104
272104.000			18.623			-3.104
272204.000			18.623			-3.104
272305.000			18.623			-3.104
272404.000			18.622			-3.104
272504.000			18.621			-3.104
272604.000			18.622			-3.104
272704.000			18.622			-3.104
272804.000			18.622			-3.104
272905.000			18.622			-3.104
273004.000			18.621			-3.104
273104.000			18.621			-3.103
273205.000			18.621			-3.104
273304.000			18.621			-3.104
273404.000			18.621			-3.103
273504.000			18.620			-3.103
273604.000			18.622			-3.104
273705.000			18.622			-3.104
273804.000			18.622			-3.104
273904.000			18.622			-3.104
274005.000			18.621			-3.103
274104.000			18.620			-3.103
274203.000			18.621			-3.104
274305.000			18.622			-3.104
274403.000			18.620			-3.103
274504.000			18.620			-3.103
274605.000			18.620			-3.103
274704.000			18.619			-3.103
274804.000			18.619			-3.103
274905.000			18.619			-3.103
275004.000			18.619			-3.103
275104.000			18.619			-3.103
275205.000			18.618			-3.103
275303.000			18.618			-3.103
275404.000			18.617			-3.103
275505.000			18.617			-3.103
275604.000			18.617			-3.103
275704.000			18.617			-3.103
275805.000			18.616			-3.103
275904.000			18.616			-3.103
276004.000			18.616			-3.103
276105.000			18.614			-3.102
276203.000			18.615			-3.102
276304.000			18.615			-3.102
276405.000			18.614			-3.102
276504.000			18.614			-3.102
276604.000			18.614			-3.102
276705.000			18.614			-3.102
276804.000			18.614			-3.102
276905.000			18.614			-3.102
277004.000			18.613			-3.102
277103.000			18.613			-3.102
277205.000			18.613			-3.102
277304.000			18.614			-3.102
277404.000			18.613			-3.102
277505.000			18.613			-3.102
277604.000			18.613			-3.102
277704.000			18.613			-3.102
277805.000			18.614			-3.102
277904.000			18.614			-3.102
278003.000			18.613			-3.102
278105.000			18.614			-3.102
278204.000			18.613			-3.102
278304.000			18.614			-3.102
278405.000			18.614			-3.102
278504.000			18.614			-3.102
278604.000			18.614			-3.102
278705.000			18.614			-3.102
278804.000			18.614			-3.102
278903.000			18.613			-3.102
279005.000			18.613			-3.102
279103.000			18.613			-3.102
279204.000			18.613			-3.102
279305.000			18.614			-3.102
279404.000			18.612			-3.102
279504.000			18.613			-3.102
279605.000			18.613			-3.102
279704.000			18.613			-3.102
279803.000			18.613			-3.102
279905.000			18.612			-3.102
280003.000			18.612			-3.102
280105.000			18.613			-3.102
280204.000			18.613			-3.102
280304.000			18.612			-3.102
280405.000			18.612			-3.102
280504.000			18.611			-3.102
280604.000			18.611			-3.102
280704.000			18.610			-3.102
280804.000			18.611			-3.102
280903.000			18.611			-3.102
281005.000			18.611			-3.102
281104.000			18.611			-3.102
281204.000			18.611			-3.102
281305.000			18.611			-3.102
281404.000			18.610			-3.102
281504.000			18.609			-3.102
281604.000			18.609			-3.101
281704.000			18.608			-3.101
281803.000			18.608			-3.101
281905.000			18.608			-3.101
282004.000			18.608			-3.101
282104.000			18.609			-3.101
282205.000			18.609			-3.102
282304.000			18.608			-3.101
282404.000			18.609			-3.101
282504.000			18.609			-3.102
282604.000			18.610			-3.102
282703.000			18.609			-3.102
282805.000			18.609			-3.101
282904.000			18.609			-3.101
283004.000			18.609			-3.102
283105.000			18.609			-3.101
283204.000			18.609			-3.101
283305.000			18.609			-3.101
283404.000			18.609			-3.101
283504.000			18.609			-3.101
283604.000			18.608			-3.101
283704.000			18.608			-3.101
283804.000			18.608			-3.101
283905.000			18.606			-3.101
284004.000			18.606			-3.101
284104.000			18.606			-3.101
284205.000			18.606			-3.101
284304.000			18.606			-3.101
284404.000			18.605			-3.101
284504.000			18.604			-3.101
284604.000			18.604			-3.101
284704.000			18.605			-3.101
284805.000			18.604			-3.101
284904.000			18.604			-3.101
285004.000			18.604			-3.101
285105.000			18.603			-3.101
285204.000			18.603			-3.101
285304.000			18.603			-3.101
285404.000			18.603			-3.100
285504.000			18.602			-3.100
285604.000			18.602			-3.100
285705.000			18.602			-3.100
285804.000			18.602			-3.100
285904.000			18.602			-3.100
286005.000			18.602			-3.100
286104.000			18.601			-3.100
286204.000			18.602			-3.100
286304.000			18.602			-3.100
286404.000			18.601			-3.100
286505.000			18.602			-3.100
286604.000			18.601			-3.100
286704.000			18.602			-3.100
286805.000			18.601			-3.100
286904.000			18.600			-3.100
287004.000			18.601			-3.100
287105.000			18.601			-3.100
287203.000			18.601			-3.100
287304.000			18.601			-3.100
287405.000			18.600			-3.100
287504.000			18.599			-3.100
287604.000			18.599			-3.100
287705.000			18.599			-3.100
287804.000			18.599			-3.100
287904.000			18.599			-3.100
288005.000			18.599			-3.100
288104.000			18.599			-3.100
288204.000			18.597			-3.100
288304.000			18.597			-3.100
288404.000			18.597			-3.100
288504.000			18.598			-3.100
288605.000			18.599			-3.100
288704.000			18.598			-3.100
288804.000			18.597			-3.099
288905.000			18.597			-3.100
289004.000			18.597			-3.099
289104.000			18.596			-3.099
289204.000			18.597			-3.100
289304.000			18.598			-3.100
289403.000			18.598			-3.100
289505.000			18.596			-3.099
289604.000			18.596			-3.099
289705.000			18.596			-3.099
289804.000			18.595			-3.099
289904.000			18.595			-3.099
290005.000			18.595			-3.099
290104.000			18.594			-3.099
290204.000			18.594			-3.099
290304.000			18.594			-3.099
290404.000			18.594			-3.099
290503.000			18.594			-3.099
290605.000			18.593			-3.099
290704.000			18.593			-3.099
290804.000			18.592			-3.099
290905.000			18.592			-3.099
291004.000			18.592			-3.099
291104.000			18.592			-3.099
291205.000			18.591			-3.099
291304.000			18.591			-3.098
291403.000			18.591			-3.098
291505.000			18.591			-3.099
291604.000			18.592			-3.099
291704.000			18.591			-3.098
291805.000			18.591			-3.098
291904.000			18.591			-3.098
292004.000			18.591			-3.099
292105.000			18.590			-3.098
292204.000			18.590			-3.098
292303.000			18.589			-3.098
292405.000			18.590			-3.098
292504.000			18.590			-3.098
292604.000			18.591			-3.098
292705.000			18.590			-3.098
292804.000			18.589			-3.098
292905.000			18.589			-3.098
293004.000			18.589			-3.098
293104.000			18.589			-3.098
293205.000			18.590			-3.098
293304.000			18.590			-3.098
293403.000			18.590			-3.098
293505.000			18.590			-3.098
293604.000			18.589			-3.098
293704.000			18.590			-3.098
293805.000			18.590			-3.098
293904.000			18.589			-3.098
294004.000			18.588			-3.098
294105.000			18.588			-3.098
294204.000			18.589			-3.098
294303.000			18.588			-3.098
294405.000			18.588			-3.098
294503.000			18.589			-3.098
294604.000			18.589			-3.098
294705.000			18.588			-3.098
294804.000			18.587			-3.098
294904.000			18.587			-3.098
295005.000			18.587			-3.098
295104.000			18.586			-3.098
295204.000			18.585			-3.097
295305.000			18.585			-3.098
295403.000			18.585			-3.097
295504.000			18.584			-3.097
295604.000			18.586			-3.098
295704.000			18.585			-3.098
295804.000			18.586			-3.098
295905.000			18.584			-3.097
296004.000			18.584			-3.097
296105.000			18.584			-3.097
296204.000			18.583			-3.097
296303.000			18.582			-3.097
296405.000			18.582			-3.097
296503.000			18.582			-3.097
296604.000			18.583			-3.097
296705.000			18.582			-3.097
296804.000			18.581			-3.097
296904.000			18.582			-3.097
297005.000			18.582			-3.097
297104.000			18.581			-3.097
297204.000			18.580			-3.097
297305.000			18.580			-3.097
297403.000			18.579			-3.097
297504.000			18.579			-3.097
297605.000			18.580			-3.097
297704.000			18.579			-3.096
297804.000			18.578			-3.096
297905.000			18.579			-3.097
298004.000			18.580			-3.097
298104.000			18.580			-3.097
298205.000			18.579			-3.097
298304.000			18.579			-3.096
298404.000			18.579			-3.097
298504.000			18.579			-3.096
298604.000			18.578			-3.096
298703.000			18.579			-3.097
298805.000			18.579			-3.096
298904.000			18.578			-3.096
299004.000			18.578			-3.096
299105.000			18.578			-3.096
299204.000			18.577			-3.096
299305.000			18.576			-3.096
299404.000			18.577			-3.096
299504.000			18.576			-3.096
299604.000			18.576			-3.096
299704.000			18.576			-3.096
299803.000			18.575			-3.096
299905.000			18.575			-3.096
