# Acquired on 26/01/2024 16:31:19 
# SPIDER: Creep_-6mm_HM077x145x38AB-2
# CREEP MEASUREMENT

# time [ms]		force [N]		stiffness [N/mm]
0.000			20.984			-3.497
103.000			21.384			-3.564
204.000			21.443			-3.574
305.000			21.375			-3.562
404.000			21.320			-3.553
505.000			21.277			-3.546
603.000			21.209			-3.535
704.000			21.181			-3.530
805.000			21.155			-3.526
904.000			21.130			-3.522
1004.000			21.107			-3.518
1104.000			21.088			-3.515
1204.000			21.068			-3.511
1304.000			21.033			-3.506
1405.000			21.016			-3.503
1504.000			21.000			-3.500
1603.000			20.986			-3.498
1705.000			20.971			-3.495
1804.000			20.957			-3.493
1904.000			20.944			-3.491
2005.000			20.931			-3.489
2104.000			20.907			-3.485
2204.000			20.896			-3.483
2304.000			20.885			-3.481
2404.000			20.875			-3.479
2504.000			20.864			-3.477
2605.000			20.855			-3.476
2704.000			20.845			-3.474
2804.000			20.826			-3.471
2905.000			20.817			-3.470
3003.000			20.809			-3.468
3104.000			20.800			-3.467
3205.000			20.791			-3.465
3304.000			20.783			-3.464
3404.000			20.775			-3.462
3503.000			20.760			-3.460
3604.000			20.753			-3.459
3705.000			20.745			-3.458
3804.000			20.738			-3.456
3904.000			20.732			-3.455
4005.000			20.725			-3.454
4104.000			20.718			-3.453
4203.000			20.704			-3.451
4305.000			20.698			-3.450
4404.000			20.691			-3.449
4504.000			20.687			-3.448
4605.000			20.681			-3.447
4703.000			20.674			-3.446
4804.000			20.667			-3.445
4905.000			20.661			-3.444
5004.000			20.651			-3.442
5104.000			20.645			-3.441
5205.000			20.640			-3.440
5304.000			20.635			-3.439
5403.000			20.629			-3.438
5505.000			20.622			-3.437
5604.000			20.618			-3.436
5704.000			20.608			-3.435
5805.000			20.603			-3.434
5903.000			20.598			-3.433
6004.000			20.594			-3.432
6105.000			20.590			-3.432
6204.000			20.584			-3.431
6304.000			20.580			-3.430
6405.000			20.570			-3.428
6504.000			20.565			-3.428
6603.000			20.560			-3.427
6705.000			20.557			-3.426
6804.000			20.554			-3.426
6905.000			20.548			-3.425
7004.000			20.545			-3.424
7103.000			20.536			-3.423
7205.000			20.532			-3.422
7304.000			20.528			-3.421
7404.000			20.525			-3.421
7505.000			20.521			-3.420
7604.000			20.517			-3.419
7704.000			20.512			-3.419
7804.000			20.509			-3.418
7904.000			20.501			-3.417
8004.000			20.499			-3.416
8105.000			20.495			-3.416
8204.000			20.491			-3.415
8303.000			20.487			-3.415
8405.000			20.484			-3.414
8504.000			20.479			-3.413
8604.000			20.473			-3.412
8705.000			20.470			-3.412
8804.000			20.467			-3.411
8904.000			20.463			-3.410
9004.000			20.459			-3.410
9104.000			20.456			-3.409
9204.000			20.453			-3.409
9305.000			20.446			-3.408
9404.000			20.443			-3.407
9504.000			20.440			-3.407
9605.000			20.437			-3.406
9703.000			20.434			-3.406
9804.000			20.431			-3.405
9905.000			20.428			-3.405
10004.000			20.424			-3.404
10105.000			20.418			-3.403
10203.000			20.416			-3.403
10304.000			20.413			-3.402
10405.000			20.409			-3.401
10504.000			20.407			-3.401
10604.000			20.404			-3.401
10705.000			20.401			-3.400
10804.000			20.397			-3.399
10903.000			20.394			-3.399
11005.000			20.391			-3.399
11104.000			20.389			-3.398
11204.000			20.386			-3.398
11305.000			20.383			-3.397
11404.000			20.380			-3.397
11504.000			20.373			-3.396
11604.000			20.372			-3.395
11704.000			20.370			-3.395
11804.000			20.366			-3.394
11905.000			20.364			-3.394
12004.000			20.361			-3.394
12103.000			20.358			-3.393
12205.000			20.353			-3.392
12304.000			20.350			-3.392
12404.000			20.347			-3.391
12505.000			20.345			-3.391
12604.000			20.342			-3.390
12704.000			20.339			-3.390
12804.000			20.337			-3.390
12904.000			20.334			-3.389
13004.000			20.330			-3.388
13104.000			20.328			-3.388
13204.000			20.326			-3.388
13305.000			20.323			-3.387
13404.000			20.321			-3.387
13503.000			20.318			-3.386
13605.000			20.317			-3.386
13704.000			20.311			-3.385
13804.000			20.310			-3.385
13905.000			20.308			-3.385
14003.000			20.305			-3.384
14104.000			20.303			-3.384
14205.000			20.301			-3.384
14304.000			20.300			-3.383
14404.000			20.295			-3.383
14505.000			20.293			-3.382
14604.000			20.290			-3.382
14703.000			20.287			-3.381
14805.000			20.285			-3.381
14904.000			20.284			-3.381
15004.000			20.281			-3.380
15105.000			20.277			-3.380
15204.000			20.275			-3.379
15304.000			20.273			-3.379
15404.000			20.271			-3.378
15504.000			20.268			-3.378
15604.000			20.266			-3.378
15705.000			20.264			-3.377
15804.000			20.263			-3.377
15903.000			20.259			-3.377
16005.000			20.257			-3.376
16104.000			20.255			-3.376
16204.000			20.253			-3.375
16305.000			20.251			-3.375
16404.000			20.249			-3.375
16505.000			20.247			-3.374
16603.000			20.244			-3.374
16704.000			20.243			-3.374
16805.000			20.240			-3.373
16904.000			20.239			-3.373
17004.000			20.238			-3.373
17105.000			20.235			-3.373
17204.000			20.232			-3.372
17303.000			20.230			-3.372
17405.000			20.228			-3.371
17504.000			20.225			-3.371
17604.000			20.223			-3.370
17705.000			20.221			-3.370
17804.000			20.219			-3.370
17904.000			20.218			-3.370
18004.000			20.214			-3.369
18104.000			20.212			-3.369
18204.000			20.211			-3.368
18305.000			20.209			-3.368
18404.000			20.208			-3.368
18503.000			20.206			-3.368
18605.000			20.205			-3.367
18704.000			20.202			-3.367
18804.000			20.199			-3.366
18905.000			20.197			-3.366
19004.000			20.195			-3.366
19104.000			20.194			-3.366
19204.000			20.192			-3.365
19304.000			20.190			-3.365
19404.000			20.189			-3.365
19504.000			20.184			-3.364
19604.000			20.182			-3.364
19705.000			20.180			-3.363
19804.000			20.178			-3.363
19903.000			20.177			-3.363
20005.000			20.177			-3.363
20104.000			20.175			-3.362
20204.000			20.172			-3.362
20305.000			20.171			-3.362
20404.000			20.169			-3.362
20504.000			20.167			-3.361
20604.000			20.165			-3.361
20704.000			20.163			-3.360
20804.000			20.162			-3.360
20905.000			20.160			-3.360
21004.000			20.158			-3.360
21103.000			20.156			-3.359
21205.000			20.154			-3.359
21304.000			20.153			-3.359
21404.000			20.151			-3.359
21505.000			20.150			-3.358
21604.000			20.149			-3.358
21704.000			20.146			-3.358
21804.000			20.143			-3.357
21904.000			20.141			-3.357
22004.000			20.141			-3.357
22105.000			20.141			-3.357
22204.000			20.139			-3.356
22303.000			20.138			-3.356
22405.000			20.134			-3.356
22504.000			20.132			-3.355
22604.000			20.131			-3.355
22705.000			20.130			-3.355
22804.000			20.128			-3.355
22905.000			20.126			-3.354
23003.000			20.125			-3.354
23104.000			20.122			-3.354
23205.000			20.120			-3.353
23304.000			20.119			-3.353
23404.000			20.118			-3.353
23504.000			20.117			-3.353
23604.000			20.115			-3.353
23703.000			20.113			-3.352
23805.000			20.111			-3.352
23904.000			20.110			-3.352
24004.000			20.108			-3.351
24105.000			20.107			-3.351
24203.000			20.105			-3.351
24304.000			20.103			-3.351
24405.000			20.102			-3.350
24504.000			20.100			-3.350
24604.000			20.098			-3.350
24705.000			20.097			-3.349
24804.000			20.095			-3.349
24903.000			20.094			-3.349
25005.000			20.093			-3.349
25104.000			20.091			-3.349
25204.000			20.090			-3.348
25305.000			20.089			-3.348
25404.000			20.087			-3.348
25504.000			20.086			-3.348
25604.000			20.084			-3.347
25704.000			20.083			-3.347
25804.000			20.081			-3.347
25904.000			20.081			-3.347
26004.000			20.078			-3.346
26103.000			20.075			-3.346
26204.000			20.073			-3.346
26304.000			20.072			-3.345
26405.000			20.072			-3.345
26504.000			20.071			-3.345
26604.000			20.069			-3.345
26705.000			20.067			-3.344
26803.000			20.066			-3.344
26904.000			20.065			-3.344
27005.000			20.065			-3.344
27104.000			20.064			-3.344
27204.000			20.062			-3.344
27305.000			20.060			-3.343
27404.000			20.058			-3.343
27503.000			20.056			-3.343
27605.000			20.055			-3.343
27704.000			20.054			-3.342
27804.000			20.052			-3.342
27905.000			20.051			-3.342
28003.000			20.050			-3.342
28104.000			20.048			-3.341
28205.000			20.046			-3.341
28304.000			20.044			-3.341
28404.000			20.043			-3.341
28505.000			20.042			-3.340
28604.000			20.041			-3.340
28703.000			20.042			-3.340
28805.000			20.040			-3.340
28904.000			20.036			-3.339
29004.000			20.036			-3.339
29105.000			20.035			-3.339
29204.000			20.033			-3.339
29305.000			20.033			-3.339
29403.000			20.031			-3.339
29504.000			20.030			-3.338
29605.000			20.028			-3.338
29704.000			20.027			-3.338
29804.000			20.026			-3.338
29904.000			20.025			-3.337
30004.000			20.024			-3.337
30103.000			20.022			-3.337
30205.000			20.021			-3.337
30304.000			20.020			-3.337
30404.000			20.018			-3.336
30505.000			20.016			-3.336
30603.000			20.015			-3.336
30704.000			20.014			-3.336
30805.000			20.013			-3.336
30904.000			20.012			-3.335
31004.000			20.011			-3.335
31105.000			20.009			-3.335
31204.000			20.008			-3.335
31303.000			20.006			-3.334
31405.000			20.006			-3.334
31504.000			20.005			-3.334
31604.000			20.004			-3.334
31705.000			20.003			-3.334
31803.000			20.000			-3.333
31904.000			19.999			-3.333
32005.000			19.999			-3.333
32104.000			19.997			-3.333
32204.000			19.995			-3.333
32304.000			19.996			-3.333
32404.000			19.995			-3.333
32503.000			19.992			-3.332
32604.000			19.993			-3.332
32704.000			19.991			-3.332
32805.000			19.989			-3.332
32904.000			19.989			-3.331
33004.000			19.987			-3.331
33105.000			19.986			-3.331
33204.000			19.985			-3.331
33304.000			19.984			-3.331
33404.000			19.984			-3.331
33504.000			19.982			-3.330
33604.000			19.980			-3.330
33705.000			19.979			-3.330
33804.000			19.977			-3.330
33904.000			19.976			-3.329
34005.000			19.975			-3.329
34103.000			19.974			-3.329
34204.000			19.973			-3.329
34305.000			19.972			-3.329
34404.000			19.971			-3.328
34504.000			19.969			-3.328
34605.000			19.968			-3.328
34704.000			19.967			-3.328
34803.000			19.967			-3.328
34905.000			19.966			-3.328
35004.000			19.964			-3.327
35104.000			19.963			-3.327
35205.000			19.963			-3.327
35304.000			19.962			-3.327
35404.000			19.960			-3.327
35503.000			19.959			-3.326
35604.000			19.958			-3.326
35705.000			19.957			-3.326
35804.000			19.956			-3.326
35904.000			19.955			-3.326
36005.000			19.954			-3.326
36104.000			19.955			-3.326
36203.000			19.953			-3.325
36305.000			19.952			-3.325
36404.000			19.950			-3.325
36504.000			19.949			-3.325
36605.000			19.948			-3.325
36704.000			19.947			-3.325
36804.000			19.946			-3.324
36904.000			19.944			-3.324
37004.000			19.943			-3.324
37104.000			19.943			-3.324
37205.000			19.941			-3.324
37304.000			19.940			-3.323
37404.000			19.939			-3.323
37505.000			19.939			-3.323
37603.000			19.936			-3.323
37704.000			19.935			-3.323
37805.000			19.934			-3.322
37904.000			19.933			-3.322
38004.000			19.933			-3.322
38105.000			19.932			-3.322
38204.000			19.931			-3.322
38303.000			19.930			-3.322
38405.000			19.929			-3.321
38504.000			19.928			-3.321
38604.000			19.926			-3.321
38705.000			19.926			-3.321
38804.000			19.926			-3.321
38905.000			19.925			-3.321
39004.000			19.924			-3.321
39104.000			19.922			-3.320
39204.000			19.921			-3.320
39304.000			19.920			-3.320
39404.000			19.919			-3.320
39505.000			19.918			-3.320
39604.000			19.918			-3.320
39704.000			19.917			-3.320
39805.000			19.916			-3.319
39903.000			19.915			-3.319
40004.000			19.914			-3.319
40105.000			19.913			-3.319
40204.000			19.911			-3.319
40304.000			19.910			-3.318
40405.000			19.911			-3.318
40504.000			19.909			-3.318
40603.000			19.907			-3.318
40705.000			19.905			-3.318
40804.000			19.905			-3.318
40904.000			19.905			-3.318
41005.000			19.904			-3.317
41104.000			19.903			-3.317
41204.000			19.901			-3.317
41304.000			19.901			-3.317
41404.000			19.900			-3.317
41504.000			19.899			-3.316
41605.000			19.899			-3.316
41704.000			19.897			-3.316
41804.000			19.896			-3.316
41905.000			19.897			-3.316
42003.000			19.895			-3.316
42105.000			19.894			-3.316
42204.000			19.893			-3.315
42304.000			19.892			-3.315
42405.000			19.892			-3.315
42504.000			19.890			-3.315
42604.000			19.888			-3.315
42704.000			19.888			-3.315
42804.000			19.887			-3.315
42904.000			19.887			-3.314
43005.000			19.886			-3.314
43104.000			19.885			-3.314
43204.000			19.884			-3.314
43305.000			19.883			-3.314
43403.000			19.881			-3.314
43504.000			19.880			-3.313
43605.000			19.879			-3.313
43704.000			19.879			-3.313
43804.000			19.878			-3.313
43905.000			19.876			-3.313
44004.000			19.875			-3.313
44103.000			19.875			-3.312
44205.000			19.874			-3.312
44304.000			19.873			-3.312
44404.000			19.873			-3.312
44505.000			19.872			-3.312
44604.000			19.871			-3.312
44704.000			19.869			-3.312
44804.000			19.869			-3.311
44904.000			19.869			-3.311
45004.000			19.867			-3.311
45104.000			19.867			-3.311
45204.000			19.864			-3.311
45305.000			19.863			-3.311
45404.000			19.864			-3.311
45503.000			19.863			-3.311
45605.000			19.861			-3.310
45704.000			19.861			-3.310
45804.000			19.859			-3.310
45905.000			19.859			-3.310
46004.000			19.858			-3.310
46104.000			19.857			-3.310
46204.000			19.857			-3.309
46304.000			19.855			-3.309
46403.000			19.854			-3.309
46505.000			19.854			-3.309
46604.000			19.853			-3.309
46704.000			19.852			-3.309
46805.000			19.851			-3.309
46904.000			19.850			-3.308
47004.000			19.850			-3.308
47104.000			19.848			-3.308
47204.000			19.847			-3.308
47304.000			19.846			-3.308
47405.000			19.846			-3.308
47504.000			19.845			-3.307
47604.000			19.844			-3.307
47705.000			19.844			-3.307
47803.000			19.842			-3.307
47904.000			19.841			-3.307
48005.000			19.839			-3.307
48104.000			19.839			-3.306
48204.000			19.839			-3.306
48304.000			19.838			-3.306
48404.000			19.836			-3.306
48503.000			19.835			-3.306
48604.000			19.835			-3.306
48704.000			19.834			-3.306
48805.000			19.833			-3.306
48904.000			19.833			-3.306
49004.000			19.832			-3.305
49105.000			19.830			-3.305
49203.000			19.829			-3.305
49304.000			19.828			-3.305
49405.000			19.828			-3.305
49504.000			19.828			-3.305
49604.000			19.827			-3.304
49705.000			19.825			-3.304
49804.000			19.824			-3.304
49904.000			19.824			-3.304
50005.000			19.824			-3.304
50103.000			19.822			-3.304
50204.000			19.822			-3.304
50305.000			19.821			-3.304
50404.000			19.820			-3.303
50504.000			19.819			-3.303
50605.000			19.818			-3.303
50704.000			19.817			-3.303
50803.000			19.817			-3.303
50905.000			19.816			-3.303
51004.000			19.816			-3.303
51104.000			19.815			-3.302
51205.000			19.814			-3.302
51304.000			19.813			-3.302
51404.000			19.812			-3.302
51503.000			19.811			-3.302
51604.000			19.810			-3.302
51705.000			19.809			-3.302
51804.000			19.809			-3.301
51904.000			19.808			-3.301
52005.000			19.808			-3.301
52104.000			19.808			-3.301
52203.000			19.806			-3.301
52305.000			19.804			-3.301
52404.000			19.804			-3.301
52504.000			19.804			-3.301
52605.000			19.803			-3.301
52704.000			19.802			-3.300
52804.000			19.801			-3.300
52904.000			19.800			-3.300
53004.000			19.799			-3.300
53104.000			19.798			-3.300
53205.000			19.798			-3.300
53304.000			19.798			-3.300
53404.000			19.797			-3.299
53505.000			19.796			-3.299
53603.000			19.795			-3.299
53704.000			19.794			-3.299
53805.000			19.794			-3.299
53904.000			19.794			-3.299
54004.000			19.793			-3.299
54105.000			19.792			-3.299
54204.000			19.791			-3.298
54303.000			19.789			-3.298
54405.000			19.789			-3.298
54504.000			19.788			-3.298
54604.000			19.787			-3.298
54705.000			19.787			-3.298
54804.000			19.785			-3.298
54905.000			19.785			-3.298
55003.000			19.785			-3.298
55104.000			19.785			-3.297
55205.000			19.784			-3.297
55304.000			19.783			-3.297
55404.000			19.782			-3.297
55505.000			19.781			-3.297
55604.000			19.780			-3.297
55703.000			19.779			-3.297
55805.000			19.778			-3.296
55904.000			19.779			-3.296
56004.000			19.777			-3.296
56105.000			19.776			-3.296
56204.000			19.777			-3.296
56304.000			19.776			-3.296
56404.000			19.776			-3.296
56504.000			19.775			-3.296
56603.000			19.774			-3.296
56705.000			19.773			-3.295
56804.000			19.773			-3.295
56904.000			19.772			-3.295
57005.000			19.771			-3.295
57104.000			19.770			-3.295
57204.000			19.769			-3.295
57304.000			19.769			-3.295
57404.000			19.767			-3.295
57504.000			19.765			-3.294
57605.000			19.766			-3.294
57704.000			19.765			-3.294
57804.000			19.765			-3.294
57905.000			19.764			-3.294
58003.000			19.764			-3.294
58105.000			19.763			-3.294
58204.000			19.762			-3.294
58304.000			19.762			-3.294
58405.000			19.762			-3.294
58504.000			19.760			-3.293
58604.000			19.759			-3.293
58704.000			19.759			-3.293
58804.000			19.758			-3.293
58904.000			19.757			-3.293
59005.000			19.756			-3.293
59104.000			19.757			-3.293
59204.000			19.755			-3.293
59305.000			19.754			-3.292
59403.000			19.753			-3.292
59504.000			19.752			-3.292
59605.000			19.752			-3.292
59704.000			19.751			-3.292
59804.000			19.751			-3.292
59905.000			19.751			-3.292
60004.000			19.750			-3.292
60104.000			19.749			-3.291
60205.000			19.748			-3.291
60303.000			19.747			-3.291
60404.000			19.747			-3.291
60505.000			19.745			-3.291
60604.000			19.745			-3.291
60704.000			19.746			-3.291
60805.000			19.745			-3.291
60904.000			19.743			-3.291
61003.000			19.743			-3.290
61105.000			19.743			-3.290
61204.000			19.742			-3.290
61305.000			19.742			-3.290
61404.000			19.741			-3.290
61504.000			19.740			-3.290
61605.000			19.739			-3.290
61703.000			19.740			-3.290
61804.000			19.738			-3.290
61905.000			19.737			-3.290
62004.000			19.736			-3.289
62104.000			19.736			-3.289
62205.000			19.735			-3.289
62304.000			19.736			-3.289
62403.000			19.735			-3.289
62505.000			19.734			-3.289
62604.000			19.732			-3.289
62704.000			19.731			-3.289
62805.000			19.731			-3.289
62904.000			19.731			-3.289
63004.000			19.730			-3.288
63104.000			19.729			-3.288
63204.000			19.728			-3.288
63304.000			19.728			-3.288
63405.000			19.727			-3.288
63504.000			19.726			-3.288
63604.000			19.726			-3.288
63705.000			19.726			-3.288
63803.000			19.726			-3.288
63904.000			19.725			-3.287
64005.000			19.723			-3.287
64104.000			19.723			-3.287
64204.000			19.722			-3.287
64304.000			19.721			-3.287
64404.000			19.721			-3.287
64503.000			19.721			-3.287
64604.000			19.721			-3.287
64704.000			19.719			-3.287
64805.000			19.720			-3.287
64904.000			19.719			-3.286
65004.000			19.718			-3.286
65105.000			19.718			-3.286
65203.000			19.716			-3.286
65304.000			19.715			-3.286
65405.000			19.713			-3.286
65504.000			19.713			-3.286
65604.000			19.713			-3.286
65705.000			19.712			-3.285
65804.000			19.712			-3.285
65903.000			19.710			-3.285
66005.000			19.711			-3.285
66104.000			19.711			-3.285
66204.000			19.710			-3.285
66305.000			19.709			-3.285
66404.000			19.708			-3.285
66504.000			19.708			-3.285
66604.000			19.707			-3.284
66704.000			19.707			-3.284
66804.000			19.707			-3.285
66905.000			19.706			-3.284
67004.000			19.705			-3.284
67104.000			19.705			-3.284
67205.000			19.704			-3.284
67303.000			19.703			-3.284
67404.000			19.702			-3.284
67505.000			19.701			-3.284
67604.000			19.701			-3.283
67705.000			19.700			-3.283
67804.000			19.699			-3.283
67904.000			19.699			-3.283
68004.000			19.698			-3.283
68104.000			19.698			-3.283
68204.000			19.697			-3.283
68305.000			19.696			-3.283
68404.000			19.696			-3.283
68504.000			19.695			-3.282
68605.000			19.695			-3.282
68703.000			19.695			-3.283
68804.000			19.694			-3.282
68904.000			19.693			-3.282
69004.000			19.693			-3.282
69104.000			19.693			-3.282
69205.000			19.692			-3.282
69304.000			19.692			-3.282
69404.000			19.691			-3.282
69505.000			19.690			-3.282
69603.000			19.689			-3.281
69704.000			19.689			-3.282
69805.000			19.689			-3.281
69904.000			19.688			-3.281
70004.000			19.686			-3.281
70105.000			19.687			-3.281
70204.000			19.686			-3.281
70303.000			19.685			-3.281
70405.000			19.685			-3.281
70504.000			19.684			-3.281
70604.000			19.683			-3.280
70705.000			19.682			-3.280
70804.000			19.682			-3.280
70905.000			19.681			-3.280
71003.000			19.681			-3.280
71104.000			19.680			-3.280
71205.000			19.680			-3.280
71304.000			19.680			-3.280
71404.000			19.679			-3.280
71505.000			19.678			-3.280
71604.000			19.678			-3.280
71703.000			19.677			-3.279
71805.000			19.676			-3.279
71904.000			19.677			-3.279
72004.000			19.675			-3.279
72105.000			19.675			-3.279
72204.000			19.675			-3.279
72304.000			19.674			-3.279
72405.000			19.674			-3.279
72504.000			19.673			-3.279
72603.000			19.671			-3.278
72705.000			19.671			-3.278
72804.000			19.671			-3.278
72904.000			19.670			-3.278
73005.000			19.669			-3.278
73104.000			19.669			-3.278
73204.000			19.670			-3.278
73304.000			19.668			-3.278
73404.000			19.668			-3.278
73504.000			19.667			-3.278
73605.000			19.666			-3.278
73704.000			19.665			-3.278
73804.000			19.665			-3.278
73905.000			19.664			-3.277
74003.000			19.663			-3.277
74105.000			19.663			-3.277
74204.000			19.664			-3.277
74304.000			19.662			-3.277
74405.000			19.662			-3.277
74504.000			19.662			-3.277
74604.000			19.660			-3.277
74704.000			19.659			-3.277
74804.000			19.660			-3.277
74903.000			19.659			-3.277
75005.000			19.659			-3.276
75104.000			19.659			-3.276
75204.000			19.659			-3.276
75305.000			19.658			-3.276
75404.000			19.657			-3.276
75504.000			19.656			-3.276
75604.000			19.656			-3.276
75704.000			19.655			-3.276
75804.000			19.654			-3.276
75905.000			19.654			-3.276
76004.000			19.655			-3.276
76104.000			19.652			-3.275
76205.000			19.653			-3.275
76303.000			19.652			-3.275
76404.000			19.651			-3.275
76505.000			19.650			-3.275
76604.000			19.650			-3.275
76704.000			19.650			-3.275
76805.000			19.649			-3.275
76904.000			19.648			-3.275
77003.000			19.647			-3.275
77105.000			19.647			-3.274
77204.000			19.647			-3.275
77305.000			19.647			-3.275
77404.000			19.646			-3.274
77504.000			19.645			-3.274
77605.000			19.645			-3.274
77704.000			19.645			-3.274
77804.000			19.644			-3.274
77904.000			19.645			-3.274
78004.000			19.645			-3.274
78104.000			19.643			-3.274
78205.000			19.643			-3.274
78304.000			19.643			-3.274
78404.000			19.643			-3.274
78505.000			19.643			-3.274
78603.000			19.643			-3.274
78704.000			19.642			-3.274
78805.000			19.643			-3.274
78904.000			19.642			-3.274
79004.000			19.641			-3.274
79105.000			19.641			-3.274
79204.000			19.640			-3.273
79303.000			19.640			-3.273
79405.000			19.640			-3.273
79504.000			19.640			-3.273
79604.000			19.641			-3.273
79705.000			19.638			-3.273
79804.000			19.638			-3.273
79904.000			19.638			-3.273
80004.000			19.637			-3.273
80104.000			19.636			-3.273
80203.000			19.636			-3.273
80305.000			19.635			-3.273
80404.000			19.634			-3.272
80505.000			19.632			-3.272
80604.000			19.633			-3.272
80703.000			19.633			-3.272
80805.000			19.632			-3.272
80904.000			19.633			-3.272
81004.000			19.631			-3.272
81105.000			19.632			-3.272
81204.000			19.631			-3.272
81304.000			19.630			-3.272
81404.000			19.630			-3.272
81504.000			19.631			-3.272
81603.000			19.630			-3.272
81705.000			19.628			-3.271
81804.000			19.628			-3.271
81904.000			19.627			-3.271
82005.000			19.627			-3.271
82104.000			19.626			-3.271
82204.000			19.626			-3.271
82304.000			19.627			-3.271
82404.000			19.625			-3.271
82504.000			19.624			-3.271
82605.000			19.623			-3.270
82704.000			19.622			-3.270
82804.000			19.623			-3.271
82905.000			19.623			-3.271
83003.000			19.622			-3.270
83104.000			19.622			-3.270
83205.000			19.621			-3.270
83304.000			19.621			-3.270
83404.000			19.619			-3.270
83504.000			19.618			-3.270
83604.000			19.619			-3.270
83703.000			19.617			-3.270
83804.000			19.617			-3.269
83904.000			19.617			-3.270
84005.000			19.617			-3.270
84104.000			19.617			-3.269
84204.000			19.615			-3.269
84305.000			19.614			-3.269
84403.000			19.615			-3.269
84504.000			19.614			-3.269
84605.000			19.612			-3.269
84704.000			19.612			-3.269
84804.000			19.611			-3.269
84905.000			19.611			-3.269
85004.000			19.610			-3.268
85103.000			19.610			-3.268
85205.000			19.610			-3.268
85304.000			19.608			-3.268
85404.000			19.608			-3.268
85505.000			19.607			-3.268
85604.000			19.605			-3.268
85704.000			19.606			-3.268
85804.000			19.606			-3.268
85904.000			19.605			-3.267
86004.000			19.604			-3.267
86105.000			19.604			-3.267
86204.000			19.602			-3.267
86304.000			19.602			-3.267
86405.000			19.601			-3.267
86503.000			19.601			-3.267
86604.000			19.600			-3.267
86705.000			19.600			-3.267
86804.000			19.599			-3.267
86905.000			19.599			-3.267
87004.000			19.599			-3.266
87104.000			19.599			-3.267
87205.000			19.600			-3.267
87304.000			19.599			-3.267
87403.000			19.598			-3.266
87505.000			19.599			-3.266
87604.000			19.598			-3.266
87704.000			19.599			-3.267
87805.000			19.599			-3.267
87904.000			19.597			-3.266
88004.000			19.597			-3.266
88104.000			19.598			-3.266
88204.000			19.597			-3.266
88304.000			19.597			-3.266
88405.000			19.595			-3.266
88504.000			19.595			-3.266
88604.000			19.595			-3.266
88705.000			19.595			-3.266
88804.000			19.596			-3.266
88904.000			19.595			-3.266
89004.000			19.593			-3.266
89104.000			19.594			-3.266
89204.000			19.594			-3.266
89305.000			19.594			-3.266
89404.000			19.594			-3.266
89504.000			19.593			-3.265
89605.000			19.592			-3.265
89703.000			19.592			-3.265
89804.000			19.591			-3.265
89905.000			19.590			-3.265
90004.000			19.589			-3.265
90105.000			19.590			-3.265
90204.000			19.588			-3.265
90304.000			19.588			-3.265
90404.000			19.588			-3.265
90504.000			19.587			-3.265
90603.000			19.585			-3.264
90705.000			19.586			-3.264
90804.000			19.585			-3.264
90904.000			19.584			-3.264
91005.000			19.583			-3.264
91104.000			19.582			-3.264
91204.000			19.583			-3.264
91304.000			19.581			-3.264
91404.000			19.581			-3.263
91504.000			19.581			-3.263
91605.000			19.580			-3.263
91704.000			19.580			-3.263
91804.000			19.579			-3.263
91905.000			19.577			-3.263
92003.000			19.577			-3.263
92104.000			19.576			-3.263
92205.000			19.576			-3.263
92304.000			19.576			-3.263
92404.000			19.575			-3.262
92505.000			19.574			-3.262
92604.000			19.572			-3.262
92704.000			19.572			-3.262
92805.000			19.573			-3.262
92903.000			19.573			-3.262
93004.000			19.572			-3.262
93105.000			19.570			-3.262
93204.000			19.571			-3.262
93305.000			19.571			-3.262
93404.000			19.569			-3.262
93504.000			19.569			-3.261
93604.000			19.569			-3.261
93704.000			19.568			-3.261
93804.000			19.567			-3.261
93905.000			19.568			-3.261
94004.000			19.566			-3.261
94104.000			19.565			-3.261
94205.000			19.563			-3.261
94303.000			19.564			-3.261
94404.000			19.564			-3.261
94505.000			19.563			-3.261
94604.000			19.563			-3.261
94704.000			19.563			-3.260
94805.000			19.562			-3.260
94904.000			19.560			-3.260
95003.000			19.560			-3.260
95105.000			19.561			-3.260
95204.000			19.561			-3.260
95304.000			19.559			-3.260
95405.000			19.559			-3.260
95504.000			19.559			-3.260
95604.000			19.558			-3.260
95705.000			19.558			-3.260
95804.000			19.558			-3.260
95903.000			19.557			-3.259
96005.000			19.556			-3.259
96104.000			19.556			-3.259
96204.000			19.556			-3.259
96305.000			19.556			-3.259
96404.000			19.554			-3.259
96505.000			19.555			-3.259
96603.000			19.554			-3.259
96704.000			19.553			-3.259
96805.000			19.554			-3.259
96904.000			19.554			-3.259
97004.000			19.553			-3.259
97105.000			19.553			-3.259
97204.000			19.552			-3.259
97303.000			19.552			-3.259
97405.000			19.551			-3.258
97504.000			19.551			-3.258
97604.000			19.551			-3.259
97705.000			19.551			-3.258
97804.000			19.550			-3.258
97904.000			19.549			-3.258
98005.000			19.548			-3.258
98104.000			19.548			-3.258
98203.000			19.548			-3.258
98305.000			19.548			-3.258
98404.000			19.547			-3.258
98504.000			19.546			-3.258
98605.000			19.545			-3.258
98704.000			19.545			-3.258
98804.000			19.545			-3.257
98904.000			19.545			-3.257
99004.000			19.544			-3.257
99104.000			19.543			-3.257
99205.000			19.543			-3.257
99304.000			19.542			-3.257
99404.000			19.541			-3.257
99505.000			19.540			-3.257
99604.000			19.540			-3.257
99705.000			19.540			-3.257
99803.000			19.540			-3.257
99904.000			19.539			-3.257
100005.000			19.538			-3.256
100104.000			19.537			-3.256
100204.000			19.537			-3.256
100305.000			19.538			-3.256
100404.000			19.537			-3.256
100503.000			19.535			-3.256
100605.000			19.535			-3.256
100704.000			19.536			-3.256
100804.000			19.536			-3.256
100905.000			19.535			-3.256
101004.000			19.535			-3.256
101104.000			19.534			-3.256
101204.000			19.534			-3.256
101304.000			19.534			-3.256
101404.000			19.533			-3.255
101505.000			19.531			-3.255
101604.000			19.531			-3.255
101704.000			19.531			-3.255
101805.000			19.531			-3.255
101903.000			19.530			-3.255
102004.000			19.529			-3.255
102105.000			19.529			-3.255
102204.000			19.529			-3.255
102304.000			19.529			-3.255
102405.000			19.529			-3.255
102504.000			19.528			-3.255
102603.000			19.527			-3.254
102705.000			19.526			-3.254
102803.000			19.526			-3.254
102905.000			19.525			-3.254
103004.000			19.525			-3.254
103104.000			19.525			-3.254
103205.000			19.524			-3.254
103304.000			19.524			-3.254
103404.000			19.524			-3.254
103504.000			19.525			-3.254
103604.000			19.524			-3.254
103704.000			19.522			-3.254
103805.000			19.522			-3.254
103904.000			19.521			-3.254
104004.000			19.522			-3.254
104105.000			19.521			-3.254
104203.000			19.521			-3.253
104304.000			19.521			-3.253
104405.000			19.519			-3.253
104504.000			19.519			-3.253
104604.000			19.518			-3.253
104705.000			19.518			-3.253
104804.000			19.518			-3.253
104903.000			19.518			-3.253
105005.000			19.517			-3.253
105104.000			19.516			-3.253
105204.000			19.516			-3.253
105305.000			19.515			-3.253
105404.000			19.515			-3.252
105504.000			19.515			-3.252
105604.000			19.515			-3.252
105704.000			19.515			-3.252
105804.000			19.514			-3.252
105904.000			19.513			-3.252
106004.000			19.512			-3.252
106105.000			19.512			-3.252
106204.000			19.511			-3.252
106304.000			19.512			-3.252
106405.000			19.511			-3.252
106503.000			19.511			-3.252
106604.000			19.510			-3.252
106705.000			19.510			-3.252
106804.000			19.509			-3.252
106904.000			19.509			-3.251
107005.000			19.509			-3.251
107104.000			19.509			-3.251
107203.000			19.509			-3.252
107305.000			19.508			-3.251
107404.000			19.507			-3.251
107504.000			19.507			-3.251
107605.000			19.506			-3.251
107704.000			19.506			-3.251
107804.000			19.507			-3.251
107904.000			19.506			-3.251
108004.000			19.505			-3.251
108104.000			19.505			-3.251
108205.000			19.504			-3.251
108304.000			19.503			-3.251
108404.000			19.502			-3.250
108505.000			19.504			-3.251
108603.000			19.504			-3.251
108704.000			19.502			-3.250
108804.000			19.503			-3.250
108904.000			19.502			-3.250
109004.000			19.501			-3.250
109104.000			19.502			-3.250
109204.000			19.501			-3.250
109305.000			19.501			-3.250
109404.000			19.501			-3.250
109503.000			19.501			-3.250
109605.000			19.500			-3.250
109704.000			19.499			-3.250
109804.000			19.499			-3.250
109905.000			19.499			-3.250
110004.000			19.500			-3.250
110104.000			19.500			-3.250
110204.000			19.500			-3.250
110304.000			19.499			-3.250
110403.000			19.499			-3.250
110505.000			19.499			-3.250
110604.000			19.499			-3.250
110704.000			19.499			-3.250
110805.000			19.498			-3.250
110904.000			19.499			-3.250
111004.000			19.498			-3.250
111104.000			19.497			-3.249
111204.000			19.497			-3.250
111304.000			19.497			-3.250
111405.000			19.497			-3.250
111504.000			19.498			-3.250
111604.000			19.497			-3.250
111705.000			19.496			-3.249
111803.000			19.495			-3.249
111904.000			19.495			-3.249
112005.000			19.496			-3.249
112104.000			19.495			-3.249
112204.000			19.495			-3.249
112304.000			19.494			-3.249
112404.000			19.495			-3.249
112503.000			19.495			-3.249
112604.000			19.495			-3.249
112703.000			19.493			-3.249
112805.000			19.493			-3.249
112904.000			19.493			-3.249
113004.000			19.493			-3.249
113105.000			19.493			-3.249
113204.000			19.493			-3.249
113304.000			19.493			-3.249
113404.000			19.492			-3.249
113504.000			19.491			-3.248
113604.000			19.490			-3.248
113705.000			19.491			-3.249
113804.000			19.491			-3.248
113904.000			19.491			-3.248
114005.000			19.491			-3.249
114103.000			19.490			-3.248
114204.000			19.489			-3.248
114305.000			19.489			-3.248
114404.000			19.488			-3.248
114504.000			19.488			-3.248
114605.000			19.488			-3.248
114704.000			19.489			-3.248
114804.000			19.488			-3.248
114905.000			19.486			-3.248
115003.000			19.485			-3.248
115104.000			19.485			-3.248
115205.000			19.485			-3.247
115304.000			19.484			-3.247
115404.000			19.484			-3.247
115504.000			19.483			-3.247
115604.000			19.482			-3.247
115703.000			19.483			-3.247
115804.000			19.483			-3.247
115903.000			19.482			-3.247
116005.000			19.481			-3.247
116104.000			19.481			-3.247
116204.000			19.481			-3.247
116305.000			19.480			-3.247
116404.000			19.480			-3.247
116504.000			19.480			-3.247
116604.000			19.480			-3.247
116704.000			19.477			-3.246
116804.000			19.477			-3.246
116905.000			19.476			-3.246
117004.000			19.477			-3.246
117104.000			19.477			-3.246
117205.000			19.477			-3.246
117303.000			19.476			-3.246
117404.000			19.475			-3.246
117504.000			19.476			-3.246
117604.000			19.475			-3.246
117704.000			19.475			-3.246
117805.000			19.475			-3.246
117904.000			19.474			-3.246
118004.000			19.473			-3.246
118105.000			19.473			-3.246
118203.000			19.472			-3.245
118304.000			19.471			-3.245
118405.000			19.472			-3.245
118504.000			19.472			-3.245
118604.000			19.472			-3.245
118704.000			19.472			-3.245
118804.000			19.471			-3.245
118903.000			19.469			-3.245
119004.000			19.469			-3.245
119103.000			19.470			-3.245
119205.000			19.469			-3.245
119304.000			19.468			-3.245
119404.000			19.469			-3.245
119505.000			19.467			-3.245
119604.000			19.466			-3.244
119704.000			19.466			-3.244
119804.000			19.466			-3.244
119904.000			19.465			-3.244
120004.000			19.465			-3.244
120105.000			19.465			-3.244
120204.000			19.464			-3.244
120304.000			19.463			-3.244
120405.000			19.463			-3.244
120503.000			19.463			-3.244
120604.000			19.463			-3.244
120705.000			19.463			-3.244
120804.000			19.463			-3.244
120904.000			19.462			-3.244
121005.000			19.462			-3.244
121104.000			19.462			-3.244
121203.000			19.462			-3.244
121305.000			19.460			-3.243
121404.000			19.460			-3.243
121504.000			19.460			-3.243
121605.000			19.460			-3.243
121704.000			19.459			-3.243
121804.000			19.460			-3.243
121904.000			19.459			-3.243
122004.000			19.459			-3.243
122103.000			19.459			-3.243
122204.000			19.458			-3.243
122304.000			19.457			-3.243
122405.000			19.456			-3.243
122504.000			19.455			-3.242
122604.000			19.455			-3.242
122705.000			19.455			-3.243
122803.000			19.455			-3.242
122904.000			19.454			-3.242
123005.000			19.454			-3.242
123104.000			19.453			-3.242
123204.000			19.452			-3.242
123305.000			19.452			-3.242
123404.000			19.452			-3.242
123503.000			19.452			-3.242
123605.000			19.451			-3.242
123704.000			19.450			-3.242
123804.000			19.450			-3.242
123905.000			19.450			-3.242
124004.000			19.449			-3.242
124104.000			19.448			-3.241
124204.000			19.448			-3.241
124304.000			19.447			-3.241
124404.000			19.446			-3.241
124505.000			19.445			-3.241
124604.000			19.446			-3.241
124704.000			19.446			-3.241
124805.000			19.445			-3.241
124904.000			19.445			-3.241
125004.000			19.445			-3.241
125103.000			19.445			-3.241
125204.000			19.444			-3.241
125305.000			19.444			-3.241
125404.000			19.443			-3.241
125504.000			19.444			-3.241
125605.000			19.445			-3.241
125704.000			19.445			-3.241
125803.000			19.445			-3.241
125905.000			19.444			-3.241
126004.000			19.445			-3.241
126104.000			19.444			-3.241
126205.000			19.444			-3.241
126304.000			19.443			-3.241
126404.000			19.443			-3.241
126504.000			19.443			-3.241
126604.000			19.443			-3.241
126704.000			19.443			-3.240
126805.000			19.442			-3.240
126904.000			19.441			-3.240
127004.000			19.442			-3.240
127105.000			19.441			-3.240
127204.000			19.441			-3.240
127304.000			19.440			-3.240
127404.000			19.440			-3.240
127504.000			19.441			-3.240
127604.000			19.440			-3.240
127705.000			19.439			-3.240
127804.000			19.438			-3.240
127904.000			19.439			-3.240
128005.000			19.438			-3.240
128103.000			19.439			-3.240
128204.000			19.438			-3.240
128305.000			19.438			-3.240
128404.000			19.437			-3.240
128505.000			19.437			-3.239
128604.000			19.437			-3.239
128704.000			19.437			-3.239
128804.000			19.436			-3.239
128904.000			19.436			-3.239
129003.000			19.435			-3.239
129105.000			19.434			-3.239
129204.000			19.434			-3.239
129304.000			19.433			-3.239
129405.000			19.432			-3.239
129504.000			19.432			-3.239
129604.000			19.431			-3.239
129704.000			19.430			-3.238
129804.000			19.430			-3.238
129904.000			19.430			-3.238
130005.000			19.430			-3.238
130104.000			19.428			-3.238
130204.000			19.428			-3.238
130305.000			19.427			-3.238
130403.000			19.427			-3.238
130504.000			19.426			-3.238
130605.000			19.425			-3.238
130704.000			19.426			-3.238
130804.000			19.426			-3.238
130905.000			19.425			-3.238
131004.000			19.424			-3.237
131103.000			19.423			-3.237
131205.000			19.423			-3.237
131303.000			19.422			-3.237
131404.000			19.421			-3.237
131505.000			19.421			-3.237
131604.000			19.422			-3.237
131705.000			19.422			-3.237
131804.000			19.421			-3.237
131904.000			19.420			-3.237
132004.000			19.422			-3.237
132104.000			19.421			-3.237
132204.000			19.421			-3.237
132305.000			19.421			-3.237
132404.000			19.421			-3.237
132504.000			19.420			-3.237
132605.000			19.421			-3.237
132704.000			19.420			-3.237
132804.000			19.421			-3.237
132904.000			19.420			-3.237
133004.000			19.419			-3.236
133104.000			19.418			-3.236
133205.000			19.418			-3.236
133304.000			19.418			-3.236
133404.000			19.419			-3.237
133505.000			19.418			-3.236
133604.000			19.418			-3.236
133704.000			19.418			-3.236
133804.000			19.418			-3.236
133904.000			19.417			-3.236
134004.000			19.417			-3.236
134105.000			19.416			-3.236
134204.000			19.415			-3.236
134304.000			19.415			-3.236
134405.000			19.414			-3.236
134504.000			19.415			-3.236
134604.000			19.415			-3.236
134703.000			19.414			-3.236
134804.000			19.413			-3.236
134905.000			19.413			-3.235
135004.000			19.413			-3.235
135104.000			19.413			-3.235
135205.000			19.411			-3.235
135304.000			19.411			-3.235
135403.000			19.412			-3.235
135505.000			19.411			-3.235
135603.000			19.411			-3.235
135704.000			19.410			-3.235
135805.000			19.410			-3.235
135904.000			19.410			-3.235
136004.000			19.409			-3.235
136105.000			19.408			-3.235
136204.000			19.408			-3.235
136304.000			19.408			-3.235
136405.000			19.408			-3.235
136503.000			19.408			-3.235
136604.000			19.408			-3.235
136705.000			19.408			-3.235
136804.000			19.406			-3.234
136904.000			19.406			-3.234
137005.000			19.406			-3.234
137104.000			19.406			-3.234
137204.000			19.406			-3.234
137305.000			19.405			-3.234
137403.000			19.405			-3.234
137504.000			19.405			-3.234
137605.000			19.405			-3.234
137704.000			19.405			-3.234
137804.000			19.403			-3.234
137904.000			19.403			-3.234
138004.000			19.403			-3.234
138105.000			19.403			-3.234
138204.000			19.402			-3.234
138303.000			19.402			-3.234
138405.000			19.401			-3.234
138504.000			19.403			-3.234
138604.000			19.402			-3.234
138705.000			19.401			-3.234
138804.000			19.401			-3.233
138904.000			19.400			-3.233
139005.000			19.400			-3.233
139104.000			19.400			-3.233
139203.000			19.400			-3.233
139305.000			19.399			-3.233
139404.000			19.401			-3.233
139504.000			19.400			-3.233
139605.000			19.399			-3.233
139704.000			19.398			-3.233
139804.000			19.399			-3.233
139905.000			19.398			-3.233
140004.000			19.397			-3.233
140103.000			19.398			-3.233
140205.000			19.398			-3.233
140304.000			19.398			-3.233
140404.000			19.397			-3.233
140505.000			19.396			-3.233
140604.000			19.396			-3.233
140704.000			19.397			-3.233
140805.000			19.397			-3.233
140904.000			19.395			-3.233
141003.000			19.395			-3.233
141105.000			19.396			-3.233
141203.000			19.395			-3.232
141305.000			19.395			-3.232
141404.000			19.395			-3.232
141504.000			19.394			-3.232
141605.000			19.393			-3.232
141704.000			19.394			-3.232
141804.000			19.394			-3.232
141905.000			19.394			-3.232
142004.000			19.393			-3.232
142103.000			19.392			-3.232
142205.000			19.392			-3.232
142304.000			19.391			-3.232
142404.000			19.390			-3.232
142505.000			19.390			-3.232
142604.000			19.391			-3.232
142704.000			19.389			-3.231
142804.000			19.389			-3.232
142904.000			19.389			-3.231
143003.000			19.388			-3.231
143105.000			19.388			-3.231
143204.000			19.387			-3.231
143304.000			19.388			-3.231
143405.000			19.387			-3.231
143504.000			19.386			-3.231
143604.000			19.386			-3.231
143705.000			19.387			-3.231
143804.000			19.387			-3.231
143903.000			19.386			-3.231
144005.000			19.385			-3.231
144104.000			19.385			-3.231
144204.000			19.385			-3.231
144305.000			19.383			-3.231
144404.000			19.383			-3.231
144505.000			19.383			-3.230
144604.000			19.383			-3.230
144704.000			19.383			-3.230
144804.000			19.382			-3.230
144904.000			19.382			-3.230
145004.000			19.380			-3.230
145105.000			19.380			-3.230
145204.000			19.380			-3.230
145304.000			19.380			-3.230
145405.000			19.380			-3.230
145504.000			19.379			-3.230
145604.000			19.378			-3.230
145704.000			19.377			-3.230
145804.000			19.376			-3.229
145903.000			19.375			-3.229
146005.000			19.375			-3.229
146104.000			19.377			-3.229
146204.000			19.377			-3.230
146305.000			19.376			-3.229
146404.000			19.376			-3.229
146504.000			19.375			-3.229
146605.000			19.375			-3.229
146704.000			19.375			-3.229
146803.000			19.374			-3.229
146905.000			19.374			-3.229
147004.000			19.373			-3.229
147104.000			19.373			-3.229
147205.000			19.374			-3.229
147304.000			19.372			-3.229
147404.000			19.373			-3.229
147504.000			19.373			-3.229
147604.000			19.373			-3.229
147703.000			19.372			-3.229
147804.000			19.372			-3.229
147903.000			19.372			-3.229
148005.000			19.373			-3.229
148104.000			19.373			-3.229
148204.000			19.372			-3.229
148305.000			19.372			-3.229
148404.000			19.371			-3.228
148504.000			19.371			-3.229
148604.000			19.372			-3.229
148704.000			19.371			-3.228
148803.000			19.370			-3.228
148905.000			19.370			-3.228
149004.000			19.369			-3.228
149104.000			19.368			-3.228
149205.000			19.367			-3.228
149304.000			19.368			-3.228
149404.000			19.367			-3.228
149505.000			19.368			-3.228
149604.000			19.368			-3.228
149703.000			19.367			-3.228
149805.000			19.366			-3.228
149904.000			19.366			-3.228
150004.000			19.366			-3.228
150105.000			19.367			-3.228
150204.000			19.366			-3.228
150304.000			19.366			-3.228
150405.000			19.364			-3.227
150504.000			19.364			-3.227
150603.000			19.364			-3.227
150705.000			19.363			-3.227
150804.000			19.363			-3.227
150905.000			19.362			-3.227
151004.000			19.361			-3.227
151104.000			19.361			-3.227
151205.000			19.362			-3.227
151304.000			19.362			-3.227
151404.000			19.361			-3.227
151504.000			19.361			-3.227
151604.000			19.360			-3.227
151703.000			19.359			-3.226
151805.000			19.358			-3.226
151904.000			19.358			-3.226
152004.000			19.358			-3.226
152105.000			19.358			-3.226
152204.000			19.359			-3.226
152304.000			19.357			-3.226
152404.000			19.356			-3.226
152504.000			19.355			-3.226
152603.000			19.355			-3.226
152705.000			19.356			-3.226
152804.000			19.355			-3.226
152904.000			19.354			-3.226
153005.000			19.355			-3.226
153104.000			19.354			-3.226
153204.000			19.354			-3.226
153304.000			19.354			-3.226
153404.000			19.353			-3.225
153503.000			19.353			-3.225
153605.000			19.353			-3.225
153704.000			19.351			-3.225
153804.000			19.351			-3.225
153905.000			19.352			-3.225
154004.000			19.352			-3.225
154105.000			19.351			-3.225
154204.000			19.350			-3.225
154304.000			19.350			-3.225
154404.000			19.349			-3.225
154504.000			19.349			-3.225
154604.000			19.349			-3.225
154705.000			19.350			-3.225
154804.000			19.350			-3.225
154904.000			19.349			-3.225
155005.000			19.347			-3.224
155104.000			19.346			-3.224
155204.000			19.347			-3.225
155304.000			19.348			-3.225
155404.000			19.348			-3.225
155503.000			19.346			-3.224
155605.000			19.346			-3.224
155704.000			19.345			-3.224
155804.000			19.346			-3.224
155905.000			19.345			-3.224
156004.000			19.345			-3.224
156104.000			19.345			-3.224
156204.000			19.344			-3.224
156304.000			19.344			-3.224
156404.000			19.343			-3.224
156505.000			19.344			-3.224
156604.000			19.344			-3.224
156704.000			19.344			-3.224
156805.000			19.345			-3.224
156904.000			19.344			-3.224
157004.000			19.343			-3.224
157103.000			19.343			-3.224
157204.000			19.343			-3.224
157303.000			19.343			-3.224
157404.000			19.342			-3.224
157504.000			19.342			-3.224
157605.000			19.342			-3.224
157704.000			19.342			-3.224
157804.000			19.343			-3.224
157905.000			19.342			-3.224
158004.000			19.341			-3.223
158104.000			19.340			-3.223
158204.000			19.340			-3.223
158304.000			19.340			-3.223
158404.000			19.340			-3.223
158505.000			19.339			-3.223
158604.000			19.339			-3.223
158704.000			19.339			-3.223
158805.000			19.338			-3.223
158904.000			19.337			-3.223
159004.000			19.338			-3.223
159104.000			19.337			-3.223
159204.000			19.336			-3.223
159304.000			19.337			-3.223
159405.000			19.336			-3.223
159504.000			19.336			-3.223
159604.000			19.337			-3.223
159705.000			19.336			-3.223
159804.000			19.337			-3.223
159904.000			19.335			-3.222
160004.000			19.334			-3.222
160104.000			19.334			-3.222
160203.000			19.334			-3.222
160305.000			19.332			-3.222
160404.000			19.332			-3.222
160505.000			19.332			-3.222
160604.000			19.333			-3.222
160704.000			19.332			-3.222
160805.000			19.331			-3.222
160903.000			19.331			-3.222
161004.000			19.331			-3.222
161105.000			19.330			-3.222
161204.000			19.329			-3.222
161304.000			19.330			-3.222
161405.000			19.330			-3.222
161504.000			19.330			-3.222
161604.000			19.330			-3.222
161705.000			19.329			-3.222
161803.000			19.329			-3.222
161904.000			19.328			-3.221
162005.000			19.328			-3.221
162104.000			19.327			-3.221
162204.000			19.326			-3.221
162305.000			19.326			-3.221
162404.000			19.326			-3.221
162504.000			19.326			-3.221
162605.000			19.326			-3.221
162703.000			19.326			-3.221
162804.000			19.326			-3.221
162905.000			19.326			-3.221
163004.000			19.325			-3.221
163104.000			19.324			-3.221
163205.000			19.325			-3.221
163304.000			19.324			-3.221
163404.000			19.323			-3.220
163505.000			19.322			-3.220
163603.000			19.324			-3.221
163705.000			19.323			-3.221
163804.000			19.322			-3.220
163904.000			19.322			-3.220
164005.000			19.321			-3.220
164104.000			19.321			-3.220
164204.000			19.321			-3.220
164305.000			19.322			-3.220
164404.000			19.321			-3.220
164503.000			19.321			-3.220
164605.000			19.320			-3.220
164704.000			19.320			-3.220
164804.000			19.320			-3.220
164905.000			19.320			-3.220
165004.000			19.320			-3.220
165104.000			19.319			-3.220
165205.000			19.319			-3.220
165304.000			19.320			-3.220
165403.000			19.319			-3.220
165505.000			19.318			-3.220
165604.000			19.318			-3.220
165704.000			19.318			-3.220
165805.000			19.317			-3.220
165904.000			19.317			-3.219
166004.000			19.317			-3.219
166105.000			19.316			-3.219
166204.000			19.315			-3.219
166303.000			19.317			-3.219
166405.000			19.317			-3.219
166503.000			19.317			-3.219
166604.000			19.316			-3.219
166705.000			19.316			-3.219
166804.000			19.315			-3.219
166905.000			19.314			-3.219
167004.000			19.314			-3.219
167104.000			19.314			-3.219
167204.000			19.314			-3.219
167304.000			19.314			-3.219
167403.000			19.313			-3.219
167505.000			19.314			-3.219
167604.000			19.313			-3.219
167704.000			19.312			-3.219
167805.000			19.312			-3.219
167904.000			19.312			-3.219
168004.000			19.312			-3.219
168104.000			19.311			-3.219
168204.000			19.311			-3.218
168303.000			19.311			-3.219
168405.000			19.311			-3.218
168504.000			19.311			-3.219
168604.000			19.310			-3.218
168705.000			19.310			-3.218
168804.000			19.311			-3.218
168904.000			19.311			-3.218
169004.000			19.309			-3.218
169104.000			19.309			-3.218
169203.000			19.309			-3.218
169305.000			19.309			-3.218
169404.000			19.308			-3.218
169504.000			19.307			-3.218
169605.000			19.307			-3.218
169704.000			19.307			-3.218
169804.000			19.307			-3.218
169904.000			19.307			-3.218
170004.000			19.307			-3.218
170103.000			19.305			-3.218
170204.000			19.306			-3.218
170304.000			19.307			-3.218
170405.000			19.306			-3.218
170504.000			19.306			-3.218
170604.000			19.306			-3.218
170705.000			19.305			-3.218
170804.000			19.305			-3.217
170904.000			19.304			-3.217
171004.000			19.304			-3.217
171104.000			19.304			-3.217
171204.000			19.303			-3.217
171305.000			19.303			-3.217
171404.000			19.304			-3.217
171504.000			19.304			-3.217
171605.000			19.301			-3.217
171703.000			19.301			-3.217
171804.000			19.303			-3.217
171905.000			19.301			-3.217
172004.000			19.302			-3.217
172104.000			19.302			-3.217
172205.000			19.301			-3.217
172304.000			19.301			-3.217
172404.000			19.300			-3.217
172505.000			19.301			-3.217
172603.000			19.300			-3.217
172704.000			19.301			-3.217
172805.000			19.301			-3.217
172904.000			19.300			-3.217
173004.000			19.298			-3.216
173104.000			19.298			-3.216
173204.000			19.299			-3.216
173305.000			19.298			-3.216
173404.000			19.297			-3.216
173503.000			19.297			-3.216
173605.000			19.298			-3.216
173703.000			19.298			-3.216
173804.000			19.297			-3.216
173905.000			19.297			-3.216
174004.000			19.297			-3.216
174104.000			19.295			-3.216
174205.000			19.295			-3.216
174304.000			19.295			-3.216
174404.000			19.295			-3.216
174505.000			19.295			-3.216
174603.000			19.295			-3.216
174704.000			19.295			-3.216
174805.000			19.294			-3.216
174904.000			19.295			-3.216
175004.000			19.295			-3.216
175105.000			19.294			-3.216
175204.000			19.294			-3.216
175304.000			19.293			-3.216
175405.000			19.294			-3.216
175503.000			19.293			-3.215
175604.000			19.292			-3.215
175704.000			19.291			-3.215
175804.000			19.291			-3.215
175904.000			19.291			-3.215
176005.000			19.291			-3.215
176104.000			19.291			-3.215
176204.000			19.291			-3.215
176305.000			19.291			-3.215
176403.000			19.290			-3.215
176505.000			19.290			-3.215
176603.000			19.290			-3.215
176704.000			19.290			-3.215
176805.000			19.290			-3.215
176904.000			19.290			-3.215
177004.000			19.289			-3.215
177105.000			19.289			-3.215
177204.000			19.289			-3.215
177304.000			19.289			-3.215
177405.000			19.288			-3.215
177503.000			19.287			-3.215
177604.000			19.287			-3.215
177704.000			19.286			-3.214
177804.000			19.286			-3.214
177904.000			19.287			-3.215
178005.000			19.287			-3.214
178104.000			19.286			-3.214
178204.000			19.286			-3.214
178305.000			19.286			-3.214
178404.000			19.285			-3.214
178504.000			19.285			-3.214
178604.000			19.285			-3.214
178704.000			19.284			-3.214
178804.000			19.284			-3.214
178905.000			19.284			-3.214
179004.000			19.284			-3.214
179104.000			19.284			-3.214
179205.000			19.283			-3.214
179304.000			19.283			-3.214
179404.000			19.283			-3.214
179503.000			19.282			-3.214
179604.000			19.282			-3.214
179703.000			19.281			-3.214
179804.000			19.282			-3.214
179904.000			19.282			-3.214
180005.000			19.282			-3.214
180104.000			19.282			-3.214
180204.000			19.281			-3.213
180305.000			19.281			-3.213
180403.000			19.280			-3.213
180504.000			19.280			-3.213
180604.000			19.279			-3.213
180704.000			19.280			-3.213
180804.000			19.280			-3.213
180905.000			19.280			-3.213
181004.000			19.279			-3.213
181104.000			19.279			-3.213
181205.000			19.279			-3.213
181304.000			19.277			-3.213
181404.000			19.277			-3.213
181504.000			19.277			-3.213
181604.000			19.277			-3.213
181704.000			19.277			-3.213
181805.000			19.277			-3.213
181904.000			19.277			-3.213
182004.000			19.276			-3.213
182105.000			19.276			-3.213
182204.000			19.276			-3.213
182304.000			19.275			-3.213
182404.000			19.274			-3.212
182504.000			19.274			-3.212
182604.000			19.274			-3.212
182704.000			19.274			-3.212
182804.000			19.274			-3.212
182905.000			19.274			-3.212
183004.000			19.273			-3.212
183104.000			19.273			-3.212
183205.000			19.274			-3.212
183303.000			19.273			-3.212
183404.000			19.273			-3.212
183505.000			19.273			-3.212
183604.000			19.272			-3.212
183704.000			19.271			-3.212
183805.000			19.271			-3.212
183904.000			19.271			-3.212
184004.000			19.271			-3.212
184105.000			19.271			-3.212
184203.000			19.269			-3.212
184304.000			19.270			-3.212
184404.000			19.271			-3.212
184504.000			19.271			-3.212
184604.000			19.270			-3.212
184705.000			19.270			-3.212
184804.000			19.271			-3.212
184904.000			19.270			-3.212
185005.000			19.270			-3.212
185103.000			19.271			-3.212
185204.000			19.270			-3.212
185304.000			19.269			-3.211
185404.000			19.269			-3.211
185504.000			19.270			-3.212
185605.000			19.270			-3.212
185704.000			19.270			-3.212
185804.000			19.269			-3.211
185905.000			19.268			-3.211
186004.000			19.268			-3.211
186105.000			19.268			-3.211
186203.000			19.268			-3.211
186304.000			19.268			-3.211
186405.000			19.269			-3.211
186504.000			19.268			-3.211
186604.000			19.267			-3.211
186705.000			19.267			-3.211
186804.000			19.267			-3.211
186904.000			19.266			-3.211
187005.000			19.266			-3.211
187104.000			19.265			-3.211
187204.000			19.266			-3.211
187304.000			19.266			-3.211
187404.000			19.266			-3.211
187504.000			19.265			-3.211
187605.000			19.265			-3.211
187704.000			19.265			-3.211
187804.000			19.265			-3.211
187905.000			19.264			-3.211
188004.000			19.263			-3.210
188104.000			19.262			-3.210
188204.000			19.262			-3.210
188304.000			19.263			-3.210
188404.000			19.262			-3.210
188505.000			19.263			-3.210
188604.000			19.263			-3.210
188704.000			19.262			-3.210
188805.000			19.262			-3.210
188904.000			19.261			-3.210
189004.000			19.262			-3.210
189104.000			19.263			-3.210
189204.000			19.262			-3.210
189303.000			19.261			-3.210
189404.000			19.260			-3.210
189504.000			19.259			-3.210
189605.000			19.259			-3.210
189704.000			19.259			-3.210
189804.000			19.259			-3.210
189905.000			19.259			-3.210
190004.000			19.260			-3.210
190104.000			19.259			-3.210
190204.000			19.259			-3.210
190304.000			19.258			-3.210
190404.000			19.258			-3.210
190505.000			19.258			-3.210
190604.000			19.258			-3.210
190704.000			19.257			-3.210
190805.000			19.258			-3.210
190904.000			19.257			-3.210
191004.000			19.257			-3.209
191104.000			19.257			-3.210
191204.000			19.257			-3.209
191303.000			19.255			-3.209
191405.000			19.254			-3.209
191504.000			19.255			-3.209
191604.000			19.255			-3.209
191705.000			19.254			-3.209
191804.000			19.254			-3.209
191904.000			19.253			-3.209
192004.000			19.253			-3.209
192104.000			19.253			-3.209
192203.000			19.253			-3.209
192305.000			19.253			-3.209
192404.000			19.252			-3.209
192505.000			19.252			-3.209
192604.000			19.251			-3.209
192704.000			19.251			-3.209
192805.000			19.251			-3.209
192903.000			19.250			-3.208
193004.000			19.250			-3.208
193104.000			19.250			-3.208
193204.000			19.251			-3.209
193304.000			19.251			-3.208
193405.000			19.250			-3.208
193504.000			19.249			-3.208
193604.000			19.248			-3.208
193705.000			19.248			-3.208
193804.000			19.249			-3.208
193904.000			19.249			-3.208
194004.000			19.248			-3.208
194104.000			19.248			-3.208
194204.000			19.247			-3.208
194305.000			19.247			-3.208
194404.000			19.246			-3.208
194504.000			19.246			-3.208
194605.000			19.245			-3.208
194704.000			19.247			-3.208
194804.000			19.247			-3.208
194904.000			19.246			-3.208
195004.000			19.246			-3.208
195104.000			19.246			-3.208
195205.000			19.245			-3.207
195304.000			19.245			-3.207
195404.000			19.244			-3.207
195505.000			19.245			-3.207
195604.000			19.244			-3.207
195705.000			19.244			-3.207
195803.000			19.244			-3.207
195904.000			19.244			-3.207
196004.000			19.244			-3.207
196104.000			19.242			-3.207
196204.000			19.242			-3.207
196305.000			19.242			-3.207
196404.000			19.242			-3.207
196504.000			19.243			-3.207
196605.000			19.242			-3.207
196703.000			19.241			-3.207
196804.000			19.240			-3.207
196904.000			19.241			-3.207
197004.000			19.241			-3.207
197104.000			19.240			-3.207
197205.000			19.240			-3.207
197304.000			19.240			-3.207
197404.000			19.240			-3.207
197505.000			19.241			-3.207
197604.000			19.241			-3.207
197704.000			19.240			-3.207
197804.000			19.239			-3.207
197904.000			19.239			-3.207
198004.000			19.239			-3.207
198105.000			19.239			-3.206
198204.000			19.238			-3.206
198304.000			19.238			-3.206
198405.000			19.237			-3.206
198504.000			19.238			-3.206
198604.000			19.238			-3.206
198703.000			19.237			-3.206
198804.000			19.237			-3.206
198903.000			19.237			-3.206
199004.000			19.237			-3.206
199104.000			19.236			-3.206
199205.000			19.236			-3.206
199304.000			19.236			-3.206
199404.000			19.236			-3.206
199505.000			19.236			-3.206
199604.000			19.235			-3.206
199704.000			19.235			-3.206
199804.000			19.235			-3.206
199904.000			19.234			-3.206
200004.000			19.234			-3.206
200105.000			19.234			-3.206
200204.000			19.234			-3.206
200304.000			19.234			-3.206
200405.000			19.233			-3.206
200504.000			19.233			-3.205
200604.000			19.233			-3.206
200704.000			19.233			-3.205
200804.000			19.233			-3.205
200904.000			19.232			-3.205
201005.000			19.232			-3.205
201104.000			19.232			-3.205
201204.000			19.232			-3.205
201305.000			19.231			-3.205
201403.000			19.230			-3.205
201504.000			19.231			-3.205
201605.000			19.231			-3.205
201704.000			19.232			-3.205
201804.000			19.232			-3.205
201904.000			19.231			-3.205
202004.000			19.231			-3.205
202105.000			19.231			-3.205
202204.000			19.231			-3.205
202303.000			19.231			-3.205
202405.000			19.231			-3.205
202504.000			19.231			-3.205
202604.000			19.231			-3.205
202705.000			19.232			-3.205
202804.000			19.231			-3.205
202904.000			19.231			-3.205
203004.000			19.231			-3.205
203104.000			19.231			-3.205
203203.000			19.231			-3.205
203305.000			19.231			-3.205
203404.000			19.231			-3.205
203504.000			19.231			-3.205
203605.000			19.230			-3.205
203704.000			19.231			-3.205
203804.000			19.230			-3.205
203904.000			19.230			-3.205
204004.000			19.230			-3.205
204104.000			19.230			-3.205
204205.000			19.229			-3.205
204304.000			19.229			-3.205
204404.000			19.229			-3.205
204505.000			19.228			-3.205
204604.000			19.229			-3.205
204704.000			19.228			-3.205
204804.000			19.227			-3.204
204904.000			19.227			-3.205
205004.000			19.228			-3.205
205104.000			19.227			-3.204
205204.000			19.226			-3.204
205305.000			19.225			-3.204
205404.000			19.225			-3.204
205504.000			19.225			-3.204
205605.000			19.225			-3.204
205703.000			19.224			-3.204
205804.000			19.224			-3.204
205905.000			19.223			-3.204
206004.000			19.223			-3.204
206104.000			19.222			-3.204
206205.000			19.222			-3.204
206304.000			19.221			-3.204
206404.000			19.222			-3.204
206505.000			19.222			-3.204
206603.000			19.222			-3.204
206704.000			19.221			-3.203
206805.000			19.221			-3.204
206904.000			19.221			-3.204
207004.000			19.221			-3.203
207105.000			19.221			-3.203
207204.000			19.220			-3.203
207303.000			19.219			-3.203
207405.000			19.218			-3.203
207504.000			19.218			-3.203
207604.000			19.217			-3.203
207705.000			19.218			-3.203
207804.000			19.218			-3.203
207904.000			19.217			-3.203
208005.000			19.218			-3.203
208104.000			19.217			-3.203
208203.000			19.216			-3.203
208305.000			19.216			-3.203
208404.000			19.216			-3.203
208505.000			19.215			-3.203
208604.000			19.214			-3.202
208704.000			19.216			-3.203
208805.000			19.215			-3.203
208904.000			19.215			-3.203
209004.000			19.215			-3.203
209104.000			19.215			-3.202
209204.000			19.215			-3.203
209303.000			19.215			-3.203
209405.000			19.215			-3.203
209504.000			19.214			-3.202
209604.000			19.215			-3.203
209705.000			19.215			-3.202
209804.000			19.214			-3.202
209904.000			19.215			-3.202
210004.000			19.215			-3.202
210104.000			19.214			-3.202
210204.000			19.214			-3.202
210305.000			19.214			-3.202
210404.000			19.213			-3.202
210504.000			19.213			-3.202
210605.000			19.213			-3.202
210704.000			19.212			-3.202
210804.000			19.213			-3.202
210904.000			19.212			-3.202
211004.000			19.211			-3.202
211104.000			19.212			-3.202
211205.000			19.211			-3.202
211304.000			19.211			-3.202
211404.000			19.211			-3.202
211505.000			19.210			-3.202
211603.000			19.209			-3.202
211705.000			19.209			-3.201
211804.000			19.209			-3.202
211904.000			19.209			-3.201
212005.000			19.208			-3.201
212104.000			19.208			-3.201
212204.000			19.207			-3.201
212305.000			19.207			-3.201
212404.000			19.208			-3.201
212503.000			19.206			-3.201
212605.000			19.207			-3.201
212704.000			19.206			-3.201
212804.000			19.206			-3.201
212905.000			19.206			-3.201
213004.000			19.206			-3.201
213104.000			19.206			-3.201
213204.000			19.206			-3.201
213304.000			19.207			-3.201
213403.000			19.205			-3.201
213505.000			19.204			-3.201
213604.000			19.204			-3.201
213704.000			19.204			-3.201
213805.000			19.205			-3.201
213904.000			19.204			-3.201
214004.000			19.203			-3.201
214104.000			19.204			-3.201
214204.000			19.204			-3.201
214303.000			19.204			-3.201
214405.000			19.203			-3.200
214504.000			19.203			-3.201
214604.000			19.203			-3.200
214705.000			19.202			-3.200
214804.000			19.201			-3.200
214905.000			19.202			-3.200
215003.000			19.202			-3.200
215104.000			19.201			-3.200
215205.000			19.201			-3.200
215304.000			19.202			-3.200
215404.000			19.200			-3.200
215505.000			19.200			-3.200
215604.000			19.200			-3.200
215704.000			19.200			-3.200
215805.000			19.200			-3.200
215903.000			19.199			-3.200
216004.000			19.199			-3.200
216105.000			19.199			-3.200
216204.000			19.199			-3.200
216304.000			19.199			-3.200
216405.000			19.199			-3.200
216504.000			19.199			-3.200
216604.000			19.198			-3.200
216705.000			19.198			-3.200
216803.000			19.197			-3.200
216904.000			19.198			-3.200
217005.000			19.197			-3.200
217104.000			19.197			-3.199
217204.000			19.197			-3.200
217305.000			19.196			-3.199
217404.000			19.196			-3.199
217504.000			19.196			-3.199
217605.000			19.196			-3.199
217703.000			19.196			-3.199
217804.000			19.195			-3.199
217903.000			19.195			-3.199
218004.000			19.195			-3.199
218105.000			19.194			-3.199
218204.000			19.194			-3.199
218304.000			19.194			-3.199
218405.000			19.195			-3.199
218504.000			19.194			-3.199
218603.000			19.193			-3.199
218705.000			19.194			-3.199
218803.000			19.194			-3.199
218904.000			19.194			-3.199
219005.000			19.193			-3.199
219104.000			19.192			-3.199
219204.000			19.192			-3.199
219305.000			19.193			-3.199
219404.000			19.192			-3.199
219504.000			19.192			-3.199
219605.000			19.192			-3.199
219703.000			19.192			-3.199
219804.000			19.191			-3.199
219905.000			19.190			-3.198
220004.000			19.191			-3.198
220104.000			19.191			-3.198
220205.000			19.191			-3.199
220304.000			19.190			-3.198
220404.000			19.190			-3.198
220505.000			19.190			-3.198
220603.000			19.189			-3.198
220704.000			19.190			-3.198
220805.000			19.189			-3.198
220904.000			19.188			-3.198
221004.000			19.189			-3.198
221104.000			19.189			-3.198
221204.000			19.188			-3.198
221303.000			19.188			-3.198
221404.000			19.188			-3.198
221503.000			19.189			-3.198
221605.000			19.188			-3.198
221704.000			19.188			-3.198
221804.000			19.187			-3.198
221905.000			19.188			-3.198
222004.000			19.186			-3.198
222104.000			19.186			-3.198
222204.000			19.187			-3.198
222304.000			19.186			-3.198
222403.000			19.185			-3.198
222505.000			19.186			-3.198
222604.000			19.185			-3.198
222704.000			19.185			-3.197
222805.000			19.185			-3.198
222904.000			19.185			-3.197
223004.000			19.184			-3.197
223104.000			19.184			-3.197
223204.000			19.185			-3.198
223303.000			19.185			-3.198
223405.000			19.185			-3.197
223504.000			19.184			-3.197
223604.000			19.184			-3.197
223705.000			19.183			-3.197
223804.000			19.182			-3.197
223904.000			19.182			-3.197
224004.000			19.182			-3.197
224104.000			19.182			-3.197
224203.000			19.183			-3.197
224305.000			19.182			-3.197
224404.000			19.181			-3.197
224505.000			19.181			-3.197
224604.000			19.181			-3.197
224704.000			19.181			-3.197
224805.000			19.180			-3.197
224904.000			19.181			-3.197
225004.000			19.181			-3.197
225104.000			19.180			-3.197
225204.000			19.180			-3.197
225304.000			19.180			-3.197
225405.000			19.181			-3.197
225504.000			19.180			-3.197
225604.000			19.180			-3.197
225705.000			19.181			-3.197
225803.000			19.182			-3.197
225904.000			19.181			-3.197
226004.000			19.181			-3.197
226104.000			19.182			-3.197
226204.000			19.181			-3.197
226305.000			19.181			-3.197
226404.000			19.181			-3.197
226504.000			19.182			-3.197
226605.000			19.183			-3.197
226703.000			19.182			-3.197
226804.000			19.181			-3.197
226904.000			19.182			-3.197
227004.000			19.183			-3.197
227104.000			19.181			-3.197
227205.000			19.182			-3.197
227304.000			19.182			-3.197
227404.000			19.181			-3.197
227505.000			19.181			-3.197
227603.000			19.182			-3.197
227705.000			19.182			-3.197
227803.000			19.182			-3.197
227904.000			19.182			-3.197
228005.000			19.182			-3.197
228104.000			19.182			-3.197
228204.000			19.182			-3.197
228305.000			19.182			-3.197
228404.000			19.181			-3.197
228503.000			19.181			-3.197
228605.000			19.181			-3.197
228703.000			19.180			-3.197
228804.000			19.182			-3.197
228905.000			19.183			-3.197
229004.000			19.181			-3.197
229104.000			19.181			-3.197
229205.000			19.181			-3.197
229304.000			19.180			-3.197
229404.000			19.180			-3.197
229505.000			19.180			-3.197
229603.000			19.180			-3.197
229704.000			19.180			-3.197
229805.000			19.179			-3.197
229904.000			19.178			-3.196
230004.000			19.179			-3.196
230105.000			19.178			-3.196
230204.000			19.179			-3.196
230304.000			19.178			-3.196
230405.000			19.177			-3.196
230503.000			19.177			-3.196
230604.000			19.179			-3.196
230705.000			19.177			-3.196
230804.000			19.176			-3.196
230905.000			19.176			-3.196
231004.000			19.176			-3.196
231104.000			19.176			-3.196
231205.000			19.177			-3.196
231304.000			19.175			-3.196
231404.000			19.175			-3.196
231505.000			19.175			-3.196
231603.000			19.174			-3.196
231704.000			19.173			-3.195
231805.000			19.173			-3.196
231904.000			19.173			-3.196
232004.000			19.173			-3.195
232105.000			19.173			-3.195
232204.000			19.173			-3.195
232303.000			19.173			-3.195
232405.000			19.171			-3.195
232503.000			19.171			-3.195
232604.000			19.170			-3.195
232705.000			19.169			-3.195
232804.000			19.169			-3.195
232904.000			19.170			-3.195
233005.000			19.169			-3.195
233104.000			19.168			-3.195
233203.000			19.168			-3.195
233305.000			19.168			-3.195
233403.000			19.167			-3.195
233504.000			19.169			-3.195
233605.000			19.167			-3.194
233704.000			19.167			-3.194
233804.000			19.167			-3.195
233904.000			19.167			-3.194
234004.000			19.166			-3.194
234103.000			19.165			-3.194
234204.000			19.164			-3.194
234303.000			19.164			-3.194
234405.000			19.165			-3.194
234504.000			19.164			-3.194
234604.000			19.164			-3.194
234705.000			19.164			-3.194
234804.000			19.163			-3.194
234904.000			19.164			-3.194
235004.000			19.164			-3.194
235104.000			19.164			-3.194
235203.000			19.163			-3.194
235305.000			19.164			-3.194
235404.000			19.165			-3.194
235504.000			19.164			-3.194
235605.000			19.164			-3.194
235704.000			19.164			-3.194
235804.000			19.164			-3.194
235904.000			19.164			-3.194
236004.000			19.163			-3.194
236103.000			19.162			-3.194
236205.000			19.163			-3.194
236304.000			19.163			-3.194
236404.000			19.163			-3.194
236505.000			19.162			-3.194
236604.000			19.162			-3.194
236704.000			19.162			-3.194
236804.000			19.161			-3.194
236904.000			19.160			-3.193
237003.000			19.161			-3.193
237105.000			19.161			-3.193
237204.000			19.161			-3.193
237305.000			19.160			-3.193
237404.000			19.159			-3.193
237504.000			19.159			-3.193
237605.000			19.159			-3.193
237703.000			19.158			-3.193
237804.000			19.159			-3.193
237904.000			19.159			-3.193
238004.000			19.158			-3.193
238104.000			19.158			-3.193
238205.000			19.159			-3.193
238304.000			19.158			-3.193
238404.000			19.158			-3.193
238505.000			19.157			-3.193
238604.000			19.157			-3.193
238704.000			19.158			-3.193
238804.000			19.158			-3.193
238904.000			19.158			-3.193
239004.000			19.158			-3.193
239105.000			19.157			-3.193
239204.000			19.156			-3.193
239304.000			19.156			-3.193
239405.000			19.156			-3.193
239504.000			19.155			-3.193
239604.000			19.156			-3.193
239704.000			19.155			-3.193
239804.000			19.155			-3.192
239903.000			19.155			-3.192
240005.000			19.154			-3.192
240104.000			19.154			-3.192
240204.000			19.153			-3.192
240305.000			19.153			-3.192
240404.000			19.153			-3.192
240505.000			19.153			-3.192
240603.000			19.152			-3.192
240704.000			19.152			-3.192
240805.000			19.152			-3.192
240904.000			19.152			-3.192
241004.000			19.153			-3.192
241105.000			19.153			-3.192
241204.000			19.152			-3.192
241304.000			19.151			-3.192
241405.000			19.151			-3.192
241503.000			19.152			-3.192
241604.000			19.151			-3.192
241705.000			19.150			-3.192
241804.000			19.150			-3.192
241904.000			19.150			-3.192
242005.000			19.151			-3.192
242104.000			19.152			-3.192
242203.000			19.151			-3.192
242305.000			19.150			-3.192
242403.000			19.149			-3.192
242504.000			19.149			-3.192
242605.000			19.149			-3.192
242704.000			19.148			-3.191
242804.000			19.149			-3.191
242905.000			19.150			-3.192
243004.000			19.149			-3.192
243103.000			19.149			-3.191
243205.000			19.149			-3.191
243303.000			19.149			-3.192
243404.000			19.149			-3.192
243505.000			19.148			-3.191
243604.000			19.149			-3.192
243705.000			19.149			-3.191
243804.000			19.148			-3.191
243904.000			19.147			-3.191
244004.000			19.147			-3.191
244104.000			19.147			-3.191
244203.000			19.146			-3.191
244305.000			19.147			-3.191
244404.000			19.147			-3.191
244504.000			19.147			-3.191
244605.000			19.146			-3.191
244704.000			19.146			-3.191
244804.000			19.145			-3.191
244904.000			19.144			-3.191
245004.000			19.145			-3.191
245103.000			19.146			-3.191
245205.000			19.145			-3.191
245304.000			19.145			-3.191
245404.000			19.145			-3.191
245505.000			19.144			-3.191
245604.000			19.143			-3.190
245704.000			19.143			-3.190
245804.000			19.142			-3.190
245904.000			19.143			-3.190
246003.000			19.142			-3.190
246105.000			19.142			-3.190
246204.000			19.142			-3.190
246304.000			19.142			-3.190
246405.000			19.141			-3.190
246504.000			19.141			-3.190
246604.000			19.140			-3.190
246703.000			19.141			-3.190
246804.000			19.140			-3.190
246903.000			19.141			-3.190
247004.000			19.140			-3.190
247104.000			19.139			-3.190
247205.000			19.140			-3.190
247304.000			19.140			-3.190
247404.000			19.140			-3.190
247505.000			19.139			-3.190
247603.000			19.138			-3.190
247704.000			19.138			-3.190
247804.000			19.139			-3.190
247904.000			19.138			-3.190
248004.000			19.137			-3.190
248105.000			19.138			-3.190
248204.000			19.137			-3.190
248304.000			19.137			-3.190
248405.000			19.137			-3.189
248504.000			19.136			-3.189
248604.000			19.136			-3.189
248704.000			19.137			-3.189
248804.000			19.137			-3.190
248904.000			19.137			-3.189
249005.000			19.138			-3.190
249104.000			19.137			-3.190
249204.000			19.137			-3.189
249305.000			19.137			-3.189
249404.000			19.137			-3.190
249504.000			19.137			-3.189
249604.000			19.136			-3.189
249704.000			19.135			-3.189
249804.000			19.136			-3.189
249904.000			19.135			-3.189
250004.000			19.135			-3.189
250105.000			19.135			-3.189
250204.000			19.135			-3.189
250304.000			19.135			-3.189
250405.000			19.135			-3.189
250503.000			19.134			-3.189
250604.000			19.133			-3.189
250705.000			19.133			-3.189
250804.000			19.133			-3.189
250904.000			19.133			-3.189
251005.000			19.132			-3.189
251104.000			19.133			-3.189
251204.000			19.132			-3.189
251305.000			19.131			-3.189
251403.000			19.131			-3.188
251504.000			19.132			-3.189
251605.000			19.132			-3.189
251704.000			19.132			-3.189
251804.000			19.131			-3.189
251905.000			19.131			-3.188
252004.000			19.131			-3.189
252103.000			19.131			-3.189
252205.000			19.130			-3.188
252303.000			19.131			-3.188
252404.000			19.130			-3.188
252505.000			19.128			-3.188
252604.000			19.129			-3.188
252704.000			19.129			-3.188
252805.000			19.128			-3.188
252904.000			19.128			-3.188
253003.000			19.128			-3.188
253105.000			19.128			-3.188
253203.000			19.128			-3.188
253305.000			19.128			-3.188
253404.000			19.128			-3.188
253504.000			19.127			-3.188
253605.000			19.127			-3.188
253704.000			19.127			-3.188
253804.000			19.127			-3.188
253904.000			19.127			-3.188
254004.000			19.126			-3.188
254103.000			19.126			-3.188
254205.000			19.127			-3.188
254304.000			19.127			-3.188
254404.000			19.127			-3.188
254505.000			19.127			-3.188
254604.000			19.126			-3.188
254704.000			19.126			-3.188
254804.000			19.127			-3.188
254904.000			19.128			-3.188
255003.000			19.128			-3.188
255105.000			19.127			-3.188
255204.000			19.127			-3.188
255304.000			19.127			-3.188
255405.000			19.127			-3.188
255504.000			19.126			-3.188
255604.000			19.125			-3.188
255704.000			19.125			-3.188
255804.000			19.125			-3.188
255903.000			19.125			-3.188
256005.000			19.126			-3.188
256104.000			19.125			-3.188
256204.000			19.125			-3.187
256305.000			19.125			-3.187
256404.000			19.123			-3.187
256505.000			19.123			-3.187
256603.000			19.124			-3.187
256704.000			19.125			-3.188
256804.000			19.124			-3.187
256904.000			19.123			-3.187
257004.000			19.121			-3.187
257105.000			19.122			-3.187
257204.000			19.122			-3.187
257304.000			19.122			-3.187
257405.000			19.122			-3.187
257503.000			19.121			-3.187
257604.000			19.122			-3.187
257704.000			19.122			-3.187
257804.000			19.122			-3.187
257904.000			19.122			-3.187
258005.000			19.121			-3.187
258104.000			19.121			-3.187
258204.000			19.121			-3.187
258305.000			19.122			-3.187
258403.000			19.123			-3.187
258504.000			19.123			-3.187
258604.000			19.123			-3.187
258704.000			19.122			-3.187
258804.000			19.122			-3.187
258905.000			19.122			-3.187
259004.000			19.121			-3.187
259104.000			19.121			-3.187
259205.000			19.122			-3.187
259303.000			19.122			-3.187
259404.000			19.122			-3.187
259503.000			19.121			-3.187
259604.000			19.121			-3.187
259705.000			19.121			-3.187
259804.000			19.123			-3.187
259904.000			19.122			-3.187
260005.000			19.121			-3.187
260104.000			19.121			-3.187
260203.000			19.120			-3.187
260305.000			19.121			-3.187
260404.000			19.122			-3.187
260504.000			19.121			-3.187
260605.000			19.121			-3.187
260704.000			19.120			-3.187
260804.000			19.120			-3.187
260905.000			19.120			-3.187
261004.000			19.120			-3.187
261103.000			19.120			-3.187
261205.000			19.120			-3.187
261304.000			19.119			-3.186
261404.000			19.118			-3.186
261505.000			19.119			-3.186
261604.000			19.119			-3.187
261704.000			19.120			-3.187
261805.000			19.119			-3.186
261904.000			19.118			-3.186
262003.000			19.118			-3.186
262105.000			19.118			-3.186
262204.000			19.117			-3.186
262304.000			19.117			-3.186
262405.000			19.118			-3.186
262504.000			19.118			-3.186
262604.000			19.116			-3.186
262704.000			19.116			-3.186
262804.000			19.116			-3.186
262903.000			19.115			-3.186
263004.000			19.114			-3.186
263104.000			19.115			-3.186
263205.000			19.114			-3.186
263304.000			19.114			-3.186
263404.000			19.113			-3.186
263505.000			19.114			-3.186
263604.000			19.114			-3.186
263704.000			19.113			-3.186
263804.000			19.112			-3.185
263904.000			19.111			-3.185
264004.000			19.111			-3.185
264105.000			19.111			-3.185
264204.000			19.112			-3.185
264304.000			19.111			-3.185
264405.000			19.111			-3.185
264503.000			19.110			-3.185
264604.000			19.110			-3.185
264704.000			19.111			-3.185
264804.000			19.111			-3.185
264904.000			19.110			-3.185
265005.000			19.110			-3.185
265104.000			19.109			-3.185
265204.000			19.109			-3.185
265305.000			19.108			-3.185
265403.000			19.106			-3.184
265504.000			19.107			-3.184
265605.000			19.107			-3.185
265704.000			19.107			-3.184
265804.000			19.106			-3.184
265904.000			19.106			-3.184
266004.000			19.106			-3.184
266105.000			19.105			-3.184
266204.000			19.105			-3.184
266303.000			19.105			-3.184
266405.000			19.105			-3.184
266504.000			19.105			-3.184
266604.000			19.105			-3.184
266705.000			19.105			-3.184
266804.000			19.104			-3.184
266904.000			19.105			-3.184
267005.000			19.104			-3.184
267104.000			19.104			-3.184
267203.000			19.104			-3.184
267305.000			19.103			-3.184
267404.000			19.103			-3.184
267504.000			19.104			-3.184
267605.000			19.103			-3.184
267704.000			19.102			-3.184
267804.000			19.101			-3.184
267905.000			19.102			-3.184
268004.000			19.101			-3.184
268103.000			19.100			-3.183
268205.000			19.101			-3.183
268304.000			19.101			-3.183
268404.000			19.100			-3.183
268505.000			19.100			-3.183
268604.000			19.101			-3.183
268704.000			19.100			-3.183
268804.000			19.099			-3.183
268904.000			19.099			-3.183
269003.000			19.099			-3.183
269105.000			19.099			-3.183
269204.000			19.099			-3.183
269305.000			19.099			-3.183
269404.000			19.098			-3.183
269504.000			19.097			-3.183
269605.000			19.098			-3.183
269704.000			19.099			-3.183
269804.000			19.098			-3.183
269904.000			19.097			-3.183
270004.000			19.098			-3.183
270103.000			19.096			-3.183
270205.000			19.096			-3.183
270304.000			19.096			-3.183
270404.000			19.097			-3.183
270505.000			19.097			-3.183
270604.000			19.097			-3.183
270704.000			19.096			-3.183
270804.000			19.096			-3.183
270904.000			19.095			-3.183
271003.000			19.095			-3.182
271105.000			19.095			-3.183
271204.000			19.095			-3.183
271304.000			19.095			-3.183
271405.000			19.095			-3.182
271504.000			19.095			-3.182
271604.000			19.095			-3.182
271704.000			19.095			-3.182
271804.000			19.094			-3.182
271903.000			19.095			-3.183
272005.000			19.094			-3.182
272104.000			19.094			-3.182
272204.000			19.094			-3.182
272305.000			19.094			-3.182
272404.000			19.094			-3.182
272505.000			19.093			-3.182
272604.000			19.093			-3.182
272704.000			19.093			-3.182
272804.000			19.093			-3.182
272904.000			19.093			-3.182
273004.000			19.093			-3.182
273105.000			19.094			-3.182
273204.000			19.094			-3.182
273304.000			19.092			-3.182
273405.000			19.091			-3.182
273504.000			19.092			-3.182
273604.000			19.093			-3.182
273704.000			19.092			-3.182
273804.000			19.091			-3.182
273904.000			19.091			-3.182
274005.000			19.090			-3.182
274104.000			19.091			-3.182
274204.000			19.090			-3.182
274305.000			19.092			-3.182
274404.000			19.091			-3.182
274504.000			19.089			-3.182
274604.000			19.089			-3.182
274704.000			19.088			-3.181
274804.000			19.089			-3.181
274905.000			19.090			-3.182
275004.000			19.088			-3.181
275104.000			19.091			-3.182
275205.000			19.090			-3.182
275304.000			19.090			-3.182
275404.000			19.089			-3.182
275503.000			19.088			-3.181
275604.000			19.089			-3.181
275703.000			19.089			-3.181
275804.000			19.089			-3.181
275904.000			19.088			-3.181
276005.000			19.087			-3.181
276104.000			19.087			-3.181
276204.000			19.088			-3.181
276305.000			19.088			-3.181
276404.000			19.087			-3.181
276504.000			19.087			-3.181
276604.000			19.086			-3.181
276704.000			19.085			-3.181
276804.000			19.085			-3.181
276905.000			19.086			-3.181
277004.000			19.087			-3.181
277104.000			19.087			-3.181
277205.000			19.085			-3.181
277304.000			19.086			-3.181
277404.000			19.085			-3.181
277504.000			19.086			-3.181
277604.000			19.085			-3.181
277704.000			19.085			-3.181
277805.000			19.086			-3.181
277904.000			19.085			-3.181
278004.000			19.085			-3.181
278105.000			19.085			-3.181
278204.000			19.084			-3.181
278304.000			19.084			-3.181
278404.000			19.084			-3.181
278504.000			19.084			-3.181
278603.000			19.084			-3.181
278705.000			19.084			-3.181
278804.000			19.084			-3.181
278905.000			19.085			-3.181
279004.000			19.084			-3.181
279104.000			19.083			-3.181
279205.000			19.084			-3.181
279304.000			19.085			-3.181
279404.000			19.086			-3.181
279504.000			19.086			-3.181
279604.000			19.085			-3.181
279704.000			19.085			-3.181
279805.000			19.085			-3.181
279904.000			19.086			-3.181
280004.000			19.085			-3.181
280105.000			19.085			-3.181
280204.000			19.085			-3.181
280304.000			19.084			-3.181
280404.000			19.083			-3.181
280504.000			19.083			-3.181
280604.000			19.083			-3.181
280705.000			19.083			-3.180
280804.000			19.081			-3.180
280904.000			19.082			-3.180
281005.000			19.082			-3.180
281104.000			19.081			-3.180
281204.000			19.081			-3.180
281304.000			19.081			-3.180
281404.000			19.080			-3.180
281504.000			19.080			-3.180
281605.000			19.080			-3.180
281704.000			19.079			-3.180
281804.000			19.079			-3.180
281905.000			19.079			-3.180
282004.000			19.078			-3.180
282105.000			19.077			-3.180
282203.000			19.078			-3.180
282304.000			19.078			-3.180
282405.000			19.077			-3.180
282504.000			19.077			-3.179
282604.000			19.078			-3.180
282705.000			19.078			-3.180
282804.000			19.077			-3.180
282904.000			19.078			-3.180
283005.000			19.077			-3.180
283103.000			19.077			-3.179
283204.000			19.077			-3.179
283304.000			19.077			-3.179
283404.000			19.076			-3.179
283504.000			19.076			-3.179
283605.000			19.076			-3.179
283704.000			19.076			-3.179
283804.000			19.075			-3.179
283905.000			19.075			-3.179
284004.000			19.075			-3.179
284104.000			19.075			-3.179
284204.000			19.075			-3.179
284304.000			19.075			-3.179
284404.000			19.074			-3.179
284505.000			19.074			-3.179
284604.000			19.074			-3.179
284704.000			19.074			-3.179
284805.000			19.074			-3.179
284904.000			19.074			-3.179
285004.000			19.074			-3.179
285103.000			19.074			-3.179
285204.000			19.073			-3.179
285305.000			19.073			-3.179
285404.000			19.074			-3.179
285504.000			19.074			-3.179
285605.000			19.074			-3.179
285704.000			19.073			-3.179
285804.000			19.073			-3.179
285905.000			19.073			-3.179
286003.000			19.074			-3.179
286104.000			19.073			-3.179
286204.000			19.074			-3.179
286304.000			19.073			-3.179
286404.000			19.073			-3.179
286505.000			19.072			-3.179
286604.000			19.072			-3.179
286704.000			19.073			-3.179
286805.000			19.071			-3.179
286903.000			19.071			-3.179
287004.000			19.072			-3.179
287104.000			19.072			-3.179
287204.000			19.072			-3.179
287304.000			19.071			-3.178
287405.000			19.071			-3.179
287504.000			19.070			-3.178
287604.000			19.071			-3.178
287705.000			19.070			-3.178
287804.000			19.069			-3.178
287904.000			19.069			-3.178
288004.000			19.069			-3.178
288104.000			19.069			-3.178
288204.000			19.069			-3.178
288304.000			19.068			-3.178
288404.000			19.069			-3.178
288505.000			19.069			-3.178
288604.000			19.068			-3.178
288704.000			19.068			-3.178
288805.000			19.067			-3.178
288903.000			19.068			-3.178
289004.000			19.067			-3.178
289104.000			19.068			-3.178
289204.000			19.068			-3.178
289304.000			19.067			-3.178
289405.000			19.067			-3.178
289504.000			19.066			-3.178
289604.000			19.064			-3.177
289705.000			19.065			-3.178
289804.000			19.066			-3.178
289904.000			19.066			-3.178
290004.000			19.066			-3.178
290104.000			19.065			-3.178
290204.000			19.065			-3.177
290305.000			19.063			-3.177
290404.000			19.063			-3.177
290504.000			19.064			-3.177
290605.000			19.064			-3.177
290704.000			19.063			-3.177
290804.000			19.064			-3.177
290904.000			19.064			-3.177
291004.000			19.063			-3.177
291104.000			19.064			-3.177
291205.000			19.063			-3.177
291304.000			19.063			-3.177
291404.000			19.063			-3.177
291505.000			19.063			-3.177
291604.000			19.062			-3.177
291705.000			19.063			-3.177
291803.000			19.062			-3.177
291904.000			19.062			-3.177
292005.000			19.062			-3.177
292104.000			19.062			-3.177
292204.000			19.060			-3.177
292305.000			19.061			-3.177
292404.000			19.061			-3.177
292504.000			19.061			-3.177
292605.000			19.061			-3.177
292703.000			19.061			-3.177
292804.000			19.060			-3.177
292905.000			19.060			-3.177
293004.000			19.061			-3.177
293104.000			19.061			-3.177
293205.000			19.060			-3.177
293304.000			19.059			-3.177
293404.000			19.060			-3.177
293505.000			19.060			-3.177
293603.000			19.059			-3.177
293704.000			19.058			-3.176
293805.000			19.059			-3.176
293904.000			19.058			-3.176
294004.000			19.059			-3.176
294105.000			19.059			-3.176
294204.000			19.058			-3.176
294304.000			19.058			-3.176
294405.000			19.058			-3.176
294503.000			19.058			-3.176
294604.000			19.058			-3.176
294703.000			19.057			-3.176
294804.000			19.057			-3.176
294905.000			19.058			-3.176
295004.000			19.058			-3.176
295104.000			19.057			-3.176
295205.000			19.057			-3.176
295304.000			19.056			-3.176
295403.000			19.056			-3.176
295505.000			19.057			-3.176
295603.000			19.057			-3.176
295704.000			19.056			-3.176
295805.000			19.056			-3.176
295904.000			19.057			-3.176
296004.000			19.057			-3.176
296105.000			19.056			-3.176
296204.000			19.055			-3.176
296304.000			19.055			-3.176
296405.000			19.054			-3.176
296503.000			19.055			-3.176
296604.000			19.055			-3.176
296705.000			19.055			-3.176
296804.000			19.055			-3.176
296904.000			19.055			-3.176
297005.000			19.055			-3.176
297104.000			19.055			-3.176
297204.000			19.054			-3.176
297305.000			19.054			-3.176
297403.000			19.054			-3.176
297504.000			19.054			-3.176
297605.000			19.055			-3.176
297704.000			19.053			-3.176
297804.000			19.053			-3.175
297904.000			19.054			-3.176
298004.000			19.054			-3.176
298105.000			19.053			-3.175
298204.000			19.052			-3.175
298303.000			19.053			-3.176
298405.000			19.053			-3.175
298504.000			19.052			-3.175
298604.000			19.052			-3.175
298705.000			19.051			-3.175
298804.000			19.052			-3.175
298904.000			19.052			-3.175
299005.000			19.052			-3.175
299104.000			19.050			-3.175
299203.000			19.051			-3.175
299305.000			19.051			-3.175
299404.000			19.051			-3.175
299504.000			19.051			-3.175
299605.000			19.050			-3.175
299704.000			19.051			-3.175
299804.000			19.050			-3.175
299905.000			19.050			-3.175
