# Acquired on 26/01/2024 14:29:57 
# SPIDER: Creep_-5mm_HM077x145x38AA-1
# CREEP MEASUREMENT

# time [ms]		force [N]		stiffness [N/mm]
0.000			23.393			-4.679
104.000			24.248			-4.850
204.000			24.459			-4.892
304.000			24.386			-4.877
404.000			24.323			-4.865
504.000			24.239			-4.848
605.000			24.207			-4.841
704.000			24.177			-4.835
804.000			24.149			-4.830
905.000			24.125			-4.825
1004.000			24.102			-4.820
1104.000			24.081			-4.816
1205.000			24.042			-4.808
1304.000			24.025			-4.805
1405.000			24.007			-4.801
1503.000			23.992			-4.798
1604.000			23.976			-4.795
1705.000			23.962			-4.792
1804.000			23.948			-4.790
1904.000			23.924			-4.785
2005.000			23.911			-4.782
2104.000			23.901			-4.780
2203.000			23.889			-4.778
2305.000			23.877			-4.775
2404.000			23.867			-4.773
2504.000			23.858			-4.772
2605.000			23.848			-4.770
2703.000			23.828			-4.766
2804.000			23.820			-4.764
2905.000			23.812			-4.762
3004.000			23.803			-4.761
3104.000			23.794			-4.759
3205.000			23.786			-4.757
3304.000			23.777			-4.755
3403.000			23.762			-4.752
3505.000			23.755			-4.751
3604.000			23.749			-4.750
3704.000			23.741			-4.748
3805.000			23.733			-4.747
3904.000			23.727			-4.745
4004.000			23.721			-4.744
4104.000			23.707			-4.741
4204.000			23.701			-4.740
4304.000			23.695			-4.739
4405.000			23.688			-4.738
4504.000			23.682			-4.736
4603.000			23.678			-4.736
4704.000			23.671			-4.734
4804.000			23.660			-4.732
4905.000			23.653			-4.731
5004.000			23.648			-4.730
5104.000			23.643			-4.729
5205.000			23.639			-4.728
5303.000			23.633			-4.727
5404.000			23.627			-4.725
5505.000			23.622			-4.724
5604.000			23.613			-4.723
5704.000			23.608			-4.722
5805.000			23.604			-4.721
5904.000			23.599			-4.720
6003.000			23.595			-4.719
6105.000			23.590			-4.718
6204.000			23.586			-4.717
6304.000			23.577			-4.715
6405.000			23.572			-4.714
6503.000			23.568			-4.714
6604.000			23.564			-4.713
6705.000			23.560			-4.712
6804.000			23.556			-4.711
6904.000			23.552			-4.710
7005.000			23.544			-4.709
7104.000			23.539			-4.708
7203.000			23.536			-4.707
7305.000			23.533			-4.707
7404.000			23.528			-4.706
7504.000			23.525			-4.705
7605.000			23.522			-4.704
7703.000			23.515			-4.703
7805.000			23.510			-4.702
7904.000			23.506			-4.701
8004.000			23.502			-4.700
8105.000			23.500			-4.700
8204.000			23.497			-4.699
8304.000			23.493			-4.699
8404.000			23.490			-4.698
8504.000			23.483			-4.697
8604.000			23.480			-4.696
8705.000			23.476			-4.695
8804.000			23.473			-4.695
8904.000			23.471			-4.694
9005.000			23.467			-4.693
9103.000			23.464			-4.693
9204.000			23.456			-4.691
9305.000			23.453			-4.691
9404.000			23.451			-4.690
9504.000			23.448			-4.690
9604.000			23.446			-4.689
9704.000			23.442			-4.688
9804.000			23.439			-4.688
9905.000			23.434			-4.687
10004.000			23.431			-4.686
10104.000			23.428			-4.686
10205.000			23.425			-4.685
10303.000			23.423			-4.685
10404.000			23.420			-4.684
10505.000			23.417			-4.683
10604.000			23.412			-4.682
10704.000			23.410			-4.682
10804.000			23.406			-4.681
10904.000			23.404			-4.681
11005.000			23.402			-4.680
11104.000			23.398			-4.680
11204.000			23.397			-4.679
11305.000			23.394			-4.679
11404.000			23.388			-4.678
11503.000			23.385			-4.677
11605.000			23.383			-4.677
11704.000			23.381			-4.676
11804.000			23.379			-4.676
11905.000			23.376			-4.675
12004.000			23.373			-4.675
12104.000			23.369			-4.674
12204.000			23.367			-4.673
12304.000			23.364			-4.673
12404.000			23.362			-4.672
12505.000			23.360			-4.672
12604.000			23.358			-4.672
12704.000			23.355			-4.671
12805.000			23.350			-4.670
12903.000			23.348			-4.670
13004.000			23.346			-4.669
13105.000			23.344			-4.669
13204.000			23.341			-4.668
13304.000			23.340			-4.668
13404.000			23.337			-4.667
13504.000			23.333			-4.667
13604.000			23.330			-4.666
13705.000			23.329			-4.666
13804.000			23.325			-4.665
13904.000			23.323			-4.665
14005.000			23.322			-4.664
14103.000			23.320			-4.664
14205.000			23.317			-4.663
14304.000			23.314			-4.663
14404.000			23.311			-4.662
14505.000			23.309			-4.662
14604.000			23.307			-4.661
14704.000			23.305			-4.661
14804.000			23.303			-4.661
14904.000			23.301			-4.660
15004.000			23.298			-4.660
15105.000			23.296			-4.659
15204.000			23.293			-4.659
15304.000			23.292			-4.658
15405.000			23.290			-4.658
15503.000			23.287			-4.657
15604.000			23.286			-4.657
15705.000			23.282			-4.656
15804.000			23.280			-4.656
15904.000			23.277			-4.655
16004.000			23.276			-4.655
16104.000			23.274			-4.655
16204.000			23.273			-4.655
16305.000			23.271			-4.654
16404.000			23.268			-4.654
16504.000			23.267			-4.653
16605.000			23.264			-4.653
16703.000			23.262			-4.652
16804.000			23.261			-4.652
16905.000			23.259			-4.652
17004.000			23.257			-4.651
17104.000			23.254			-4.651
17205.000			23.252			-4.650
17304.000			23.250			-4.650
17403.000			23.248			-4.650
17504.000			23.246			-4.649
17604.000			23.245			-4.649
17705.000			23.244			-4.649
17804.000			23.241			-4.648
17904.000			23.237			-4.647
18005.000			23.236			-4.647
18103.000			23.235			-4.647
18204.000			23.233			-4.647
18305.000			23.230			-4.646
18404.000			23.229			-4.646
18504.000			23.228			-4.646
18605.000			23.224			-4.645
18704.000			23.222			-4.644
18803.000			23.222			-4.644
18905.000			23.220			-4.644
19004.000			23.219			-4.644
19104.000			23.218			-4.644
19205.000			23.215			-4.643
19303.000			23.212			-4.642
19404.000			23.210			-4.642
19505.000			23.210			-4.642
19604.000			23.209			-4.642
19704.000			23.206			-4.641
19805.000			23.205			-4.641
19904.000			23.203			-4.641
20003.000			23.202			-4.640
20105.000			23.198			-4.640
20204.000			23.197			-4.639
20304.000			23.195			-4.639
20405.000			23.194			-4.639
20504.000			23.192			-4.638
20605.000			23.191			-4.638
20703.000			23.190			-4.638
20804.000			23.187			-4.637
20905.000			23.185			-4.637
21004.000			23.184			-4.637
21104.000			23.182			-4.636
21204.000			23.181			-4.636
21304.000			23.180			-4.636
21404.000			23.179			-4.636
21505.000			23.176			-4.635
21604.000			23.174			-4.635
21704.000			23.173			-4.635
21805.000			23.172			-4.634
21903.000			23.170			-4.634
22004.000			23.169			-4.634
22105.000			23.167			-4.633
22204.000			23.165			-4.633
22304.000			23.163			-4.633
22405.000			23.161			-4.632
22504.000			23.160			-4.632
22603.000			23.159			-4.632
22705.000			23.157			-4.631
22804.000			23.156			-4.631
22904.000			23.154			-4.631
23005.000			23.152			-4.630
23104.000			23.151			-4.630
23204.000			23.150			-4.630
23305.000			23.148			-4.630
23404.000			23.146			-4.629
23504.000			23.146			-4.629
23605.000			23.144			-4.629
23704.000			23.143			-4.629
23803.000			23.141			-4.628
23904.000			23.138			-4.628
24004.000			23.137			-4.627
24105.000			23.136			-4.627
24204.000			23.135			-4.627
24304.000			23.134			-4.627
24405.000			23.132			-4.626
24503.000			23.130			-4.626
24604.000			23.129			-4.626
24705.000			23.128			-4.626
24804.000			23.127			-4.625
24904.000			23.125			-4.625
25005.000			23.124			-4.625
25104.000			23.122			-4.624
25203.000			23.120			-4.624
25305.000			23.119			-4.624
25404.000			23.118			-4.624
25504.000			23.117			-4.623
25605.000			23.116			-4.623
25703.000			23.114			-4.623
25804.000			23.113			-4.623
25905.000			23.111			-4.622
26004.000			23.109			-4.622
26104.000			23.108			-4.622
26205.000			23.107			-4.621
26304.000			23.106			-4.621
26403.000			23.105			-4.621
26505.000			23.104			-4.621
26604.000			23.101			-4.620
26704.000			23.100			-4.620
26805.000			23.099			-4.620
26903.000			23.098			-4.620
27005.000			23.097			-4.619
27104.000			23.096			-4.619
27204.000			23.095			-4.619
27305.000			23.092			-4.618
27404.000			23.092			-4.618
27504.000			23.090			-4.618
27604.000			23.088			-4.618
27704.000			23.088			-4.618
27804.000			23.087			-4.617
27905.000			23.086			-4.617
28004.000			23.083			-4.617
28104.000			23.082			-4.616
28205.000			23.081			-4.616
28303.000			23.080			-4.616
28404.000			23.080			-4.616
28505.000			23.078			-4.616
28604.000			23.076			-4.615
28704.000			23.075			-4.615
28805.000			23.073			-4.615
28904.000			23.072			-4.614
29003.000			23.070			-4.614
29105.000			23.069			-4.614
29204.000			23.069			-4.614
29304.000			23.069			-4.614
29405.000			23.067			-4.613
29504.000			23.065			-4.613
29604.000			23.064			-4.613
29704.000			23.063			-4.613
29804.000			23.061			-4.612
29904.000			23.060			-4.612
30005.000			23.060			-4.612
30104.000			23.058			-4.612
30205.000			23.057			-4.611
30304.000			23.056			-4.611
30403.000			23.055			-4.611
30505.000			23.055			-4.611
30604.000			23.052			-4.610
30704.000			23.051			-4.610
30805.000			23.051			-4.610
30903.000			23.048			-4.610
31004.000			23.047			-4.609
31105.000			23.047			-4.609
31204.000			23.046			-4.609
31304.000			23.045			-4.609
31405.000			23.044			-4.609
31504.000			23.043			-4.609
31603.000			23.042			-4.608
31705.000			23.039			-4.608
31804.000			23.038			-4.608
31904.000			23.037			-4.607
32005.000			23.036			-4.607
32104.000			23.034			-4.607
32204.000			23.034			-4.607
32304.000			23.034			-4.607
32404.000			23.032			-4.606
32504.000			23.031			-4.606
32605.000			23.030			-4.606
32704.000			23.029			-4.606
32803.000			23.028			-4.606
32905.000			23.026			-4.605
33004.000			23.025			-4.605
33104.000			23.023			-4.605
33205.000			23.023			-4.605
33304.000			23.022			-4.604
33405.000			23.021			-4.604
33503.000			23.022			-4.604
33604.000			23.019			-4.604
33705.000			23.017			-4.603
33804.000			23.016			-4.603
33904.000			23.015			-4.603
34004.000			23.014			-4.603
34104.000			23.014			-4.603
34204.000			23.013			-4.603
34305.000			23.012			-4.602
34404.000			23.011			-4.602
34504.000			23.010			-4.602
34605.000			23.009			-4.602
34703.000			23.008			-4.602
34804.000			23.007			-4.601
34905.000			23.006			-4.601
35004.000			23.004			-4.601
35104.000			23.003			-4.601
35204.000			23.003			-4.601
35304.000			23.000			-4.600
35404.000			22.998			-4.600
35505.000			22.999			-4.600
35604.000			22.997			-4.599
35704.000			22.997			-4.599
35805.000			22.996			-4.599
35903.000			22.995			-4.599
36004.000			22.993			-4.599
36105.000			22.992			-4.598
36204.000			22.991			-4.598
36304.000			22.991			-4.598
36405.000			22.990			-4.598
36504.000			22.989			-4.598
36603.000			22.988			-4.598
36704.000			22.987			-4.597
36804.000			22.986			-4.597
36905.000			22.985			-4.597
37004.000			22.984			-4.597
37104.000			22.983			-4.597
37205.000			22.982			-4.596
37303.000			22.981			-4.596
37404.000			22.980			-4.596
37505.000			22.980			-4.596
37604.000			22.978			-4.596
37704.000			22.976			-4.595
37805.000			22.977			-4.595
37904.000			22.976			-4.595
38003.000			22.975			-4.595
38105.000			22.973			-4.595
38204.000			22.971			-4.594
38304.000			22.970			-4.594
38405.000			22.971			-4.594
38504.000			22.970			-4.594
38604.000			22.970			-4.594
38704.000			22.969			-4.594
38804.000			22.968			-4.594
38904.000			22.965			-4.593
39005.000			22.964			-4.593
39104.000			22.964			-4.593
39204.000			22.963			-4.593
39305.000			22.963			-4.593
39403.000			22.961			-4.592
39504.000			22.960			-4.592
39605.000			22.958			-4.592
39704.000			22.959			-4.592
39805.000			22.957			-4.591
39904.000			22.956			-4.591
40004.000			22.955			-4.591
40104.000			22.954			-4.591
40204.000			22.954			-4.591
40303.000			22.953			-4.591
40405.000			22.953			-4.591
40504.000			22.952			-4.590
40604.000			22.951			-4.590
40705.000			22.950			-4.590
40803.000			22.948			-4.590
40904.000			22.948			-4.590
41005.000			22.946			-4.589
41104.000			22.945			-4.589
41204.000			22.944			-4.589
41305.000			22.944			-4.589
41404.000			22.943			-4.589
41503.000			22.942			-4.588
41605.000			22.941			-4.588
41704.000			22.940			-4.588
41804.000			22.940			-4.588
41905.000			22.940			-4.588
42004.000			22.937			-4.587
42104.000			22.937			-4.587
42204.000			22.937			-4.587
42304.000			22.936			-4.587
42404.000			22.934			-4.587
42505.000			22.933			-4.587
42604.000			22.931			-4.586
42704.000			22.931			-4.586
42805.000			22.930			-4.586
42903.000			22.929			-4.586
43005.000			22.929			-4.586
43104.000			22.929			-4.586
43204.000			22.928			-4.586
43305.000			22.927			-4.585
43404.000			22.926			-4.585
43504.000			22.925			-4.585
43604.000			22.925			-4.585
43704.000			22.924			-4.585
43804.000			22.923			-4.585
43905.000			22.921			-4.584
44004.000			22.921			-4.584
44104.000			22.920			-4.584
44205.000			22.918			-4.584
44303.000			22.917			-4.583
44404.000			22.918			-4.584
44505.000			22.917			-4.583
44604.000			22.916			-4.583
44704.000			22.915			-4.583
44804.000			22.913			-4.583
44904.000			22.913			-4.583
45004.000			22.913			-4.583
45105.000			22.912			-4.582
45204.000			22.911			-4.582
45304.000			22.911			-4.582
45405.000			22.910			-4.582
45503.000			22.908			-4.582
45604.000			22.908			-4.582
45705.000			22.908			-4.582
45804.000			22.908			-4.582
45904.000			22.907			-4.581
46005.000			22.905			-4.581
46104.000			22.904			-4.581
46203.000			22.903			-4.581
46304.000			22.902			-4.580
46404.000			22.901			-4.580
46505.000			22.902			-4.580
46604.000			22.900			-4.580
46704.000			22.900			-4.580
46805.000			22.899			-4.580
46903.000			22.898			-4.580
47004.000			22.897			-4.579
47105.000			22.896			-4.579
47204.000			22.895			-4.579
47304.000			22.895			-4.579
47405.000			22.894			-4.579
47504.000			22.894			-4.579
47603.000			22.892			-4.578
47705.000			22.892			-4.578
47804.000			22.892			-4.578
47904.000			22.891			-4.578
48005.000			22.890			-4.578
48104.000			22.889			-4.578
48204.000			22.889			-4.578
48304.000			22.886			-4.577
48404.000			22.887			-4.577
48504.000			22.886			-4.577
48605.000			22.884			-4.577
48704.000			22.884			-4.577
48804.000			22.883			-4.577
48905.000			22.883			-4.577
49003.000			22.882			-4.576
49104.000			22.882			-4.576
49205.000			22.881			-4.576
49304.000			22.880			-4.576
49405.000			22.879			-4.576
49504.000			22.879			-4.576
49604.000			22.879			-4.576
49704.000			22.878			-4.576
49804.000			22.876			-4.575
49904.000			22.875			-4.575
50005.000			22.874			-4.575
50104.000			22.874			-4.575
50204.000			22.873			-4.575
50305.000			22.873			-4.575
50403.000			22.873			-4.575
50504.000			22.870			-4.574
50605.000			22.869			-4.574
50704.000			22.869			-4.574
50804.000			22.869			-4.574
50905.000			22.868			-4.574
51004.000			22.867			-4.573
51103.000			22.867			-4.573
51205.000			22.864			-4.573
51304.000			22.863			-4.573
51404.000			22.863			-4.573
51505.000			22.865			-4.573
51604.000			22.863			-4.573
51704.000			22.862			-4.572
51804.000			22.861			-4.572
51904.000			22.861			-4.572
52004.000			22.860			-4.572
52105.000			22.860			-4.572
52204.000			22.859			-4.572
52304.000			22.858			-4.572
52405.000			22.856			-4.571
52503.000			22.856			-4.571
52605.000			22.856			-4.571
52704.000			22.855			-4.571
52804.000			22.854			-4.571
52905.000			22.853			-4.571
53004.000			22.852			-4.570
53104.000			22.851			-4.570
53204.000			22.852			-4.570
53304.000			22.851			-4.570
53404.000			22.850			-4.570
53505.000			22.850			-4.570
53604.000			22.849			-4.570
53703.000			22.848			-4.570
53805.000			22.847			-4.569
53904.000			22.846			-4.569
54004.000			22.846			-4.569
54105.000			22.845			-4.569
54204.000			22.845			-4.569
54304.000			22.844			-4.569
54404.000			22.844			-4.569
54504.000			22.842			-4.568
54604.000			22.842			-4.568
54705.000			22.841			-4.568
54804.000			22.840			-4.568
54904.000			22.839			-4.568
55005.000			22.839			-4.568
55103.000			22.839			-4.568
55204.000			22.839			-4.568
55305.000			22.838			-4.568
55404.000			22.836			-4.567
55504.000			22.836			-4.567
55605.000			22.836			-4.567
55704.000			22.835			-4.567
55803.000			22.833			-4.567
55904.000			22.833			-4.567
56004.000			22.831			-4.566
56105.000			22.831			-4.566
56204.000			22.832			-4.566
56304.000			22.829			-4.566
56405.000			22.830			-4.566
56503.000			22.829			-4.566
56604.000			22.829			-4.566
56705.000			22.828			-4.566
56804.000			22.827			-4.565
56904.000			22.827			-4.565
57005.000			22.826			-4.565
57104.000			22.825			-4.565
57203.000			22.824			-4.565
57305.000			22.824			-4.565
57404.000			22.823			-4.565
57504.000			22.822			-4.564
57605.000			22.822			-4.564
57704.000			22.821			-4.564
57804.000			22.820			-4.564
57904.000			22.820			-4.564
58004.000			22.819			-4.564
58104.000			22.819			-4.564
58205.000			22.819			-4.564
58304.000			22.818			-4.564
58403.000			22.818			-4.564
58505.000			22.817			-4.563
58604.000			22.815			-4.563
58704.000			22.815			-4.563
58805.000			22.814			-4.563
58904.000			22.814			-4.563
59005.000			22.813			-4.563
59104.000			22.813			-4.563
59204.000			22.812			-4.562
59304.000			22.811			-4.562
59404.000			22.810			-4.562
59504.000			22.809			-4.562
59605.000			22.810			-4.562
59704.000			22.810			-4.562
59803.000			22.809			-4.562
59905.000			22.807			-4.561
60003.000			22.807			-4.561
60104.000			22.806			-4.561
60205.000			22.805			-4.561
60304.000			22.805			-4.561
60404.000			22.805			-4.561
60504.000			22.805			-4.561
60604.000			22.802			-4.560
60704.000			22.802			-4.560
60805.000			22.800			-4.560
60904.000			22.800			-4.560
61004.000			22.801			-4.560
61105.000			22.800			-4.560
61203.000			22.799			-4.560
61304.000			22.800			-4.560
61405.000			22.798			-4.560
61504.000			22.798			-4.560
61604.000			22.797			-4.559
61705.000			22.797			-4.559
61804.000			22.796			-4.559
61903.000			22.795			-4.559
62005.000			22.794			-4.559
62104.000			22.794			-4.559
62205.000			22.793			-4.559
62304.000			22.793			-4.559
62404.000			22.793			-4.559
62505.000			22.792			-4.558
62603.000			22.791			-4.558
62704.000			22.790			-4.558
62805.000			22.789			-4.558
62904.000			22.788			-4.558
63004.000			22.788			-4.558
63105.000			22.788			-4.558
63204.000			22.787			-4.557
63303.000			22.785			-4.557
63405.000			22.786			-4.557
63504.000			22.786			-4.557
63604.000			22.786			-4.557
63705.000			22.785			-4.557
63804.000			22.784			-4.557
63904.000			22.783			-4.557
64004.000			22.783			-4.557
64104.000			22.783			-4.557
64204.000			22.781			-4.556
64305.000			22.781			-4.556
64404.000			22.779			-4.556
64504.000			22.780			-4.556
64605.000			22.779			-4.556
64703.000			22.779			-4.556
64804.000			22.779			-4.556
64905.000			22.778			-4.556
65004.000			22.776			-4.555
65104.000			22.775			-4.555
65205.000			22.775			-4.555
65304.000			22.775			-4.555
65403.000			22.774			-4.555
65504.000			22.773			-4.555
65604.000			22.773			-4.555
65705.000			22.773			-4.555
65804.000			22.772			-4.554
65904.000			22.771			-4.554
66005.000			22.770			-4.554
66103.000			22.770			-4.554
66204.000			22.770			-4.554
66305.000			22.770			-4.554
66404.000			22.767			-4.553
66504.000			22.767			-4.553
66605.000			22.766			-4.553
66704.000			22.766			-4.553
66803.000			22.765			-4.553
66905.000			22.765			-4.553
67004.000			22.765			-4.553
67104.000			22.764			-4.553
67205.000			22.763			-4.553
67304.000			22.763			-4.553
67404.000			22.763			-4.553
67504.000			22.762			-4.552
67604.000			22.761			-4.552
67704.000			22.762			-4.552
67805.000			22.761			-4.552
67904.000			22.759			-4.552
68004.000			22.758			-4.552
68105.000			22.757			-4.551
68203.000			22.757			-4.551
68304.000			22.758			-4.552
68405.000			22.757			-4.551
68504.000			22.756			-4.551
68605.000			22.756			-4.551
68704.000			22.756			-4.551
68804.000			22.755			-4.551
68904.000			22.754			-4.551
69004.000			22.754			-4.551
69104.000			22.754			-4.551
69205.000			22.752			-4.550
69304.000			22.754			-4.551
69404.000			22.754			-4.551
69505.000			22.751			-4.550
69603.000			22.749			-4.550
69704.000			22.749			-4.550
69805.000			22.750			-4.550
69904.000			22.749			-4.550
70004.000			22.749			-4.550
70105.000			22.748			-4.550
70204.000			22.748			-4.550
70303.000			22.747			-4.549
70405.000			22.746			-4.549
70504.000			22.746			-4.549
70604.000			22.746			-4.549
70705.000			22.745			-4.549
70804.000			22.743			-4.549
70904.000			22.742			-4.548
71004.000			22.742			-4.548
71104.000			22.743			-4.549
71204.000			22.742			-4.548
71305.000			22.742			-4.548
71404.000			22.742			-4.548
71504.000			22.740			-4.548
71605.000			22.740			-4.548
71703.000			22.740			-4.548
71805.000			22.739			-4.548
71904.000			22.738			-4.548
72004.000			22.738			-4.548
72105.000			22.737			-4.547
72204.000			22.737			-4.547
72304.000			22.736			-4.547
72404.000			22.736			-4.547
72504.000			22.734			-4.547
72604.000			22.734			-4.547
72705.000			22.734			-4.547
72804.000			22.734			-4.547
72904.000			22.733			-4.547
73005.000			22.732			-4.546
73103.000			22.732			-4.546
73204.000			22.731			-4.546
73305.000			22.731			-4.546
73404.000			22.731			-4.546
73504.000			22.730			-4.546
73604.000			22.729			-4.546
73704.000			22.729			-4.546
73804.000			22.728			-4.546
73905.000			22.727			-4.545
74004.000			22.727			-4.545
74104.000			22.726			-4.545
74205.000			22.727			-4.545
74303.000			22.726			-4.545
74404.000			22.724			-4.545
74505.000			22.724			-4.545
74604.000			22.724			-4.545
74704.000			22.723			-4.545
74805.000			22.722			-4.544
74904.000			22.723			-4.545
75003.000			22.723			-4.545
75104.000			22.721			-4.544
75204.000			22.721			-4.544
75305.000			22.720			-4.544
75404.000			22.720			-4.544
75504.000			22.719			-4.544
75605.000			22.719			-4.544
75703.000			22.718			-4.544
75804.000			22.718			-4.544
75905.000			22.717			-4.543
76004.000			22.717			-4.543
76104.000			22.718			-4.544
76205.000			22.717			-4.543
76304.000			22.715			-4.543
76403.000			22.715			-4.543
76505.000			22.715			-4.543
76604.000			22.713			-4.543
76704.000			22.712			-4.542
76805.000			22.713			-4.543
76904.000			22.713			-4.543
77004.000			22.712			-4.542
77104.000			22.711			-4.542
77204.000			22.711			-4.542
77304.000			22.709			-4.542
77405.000			22.709			-4.542
77504.000			22.709			-4.542
77604.000			22.709			-4.542
77705.000			22.708			-4.542
77803.000			22.706			-4.541
77904.000			22.706			-4.541
78005.000			22.707			-4.541
78104.000			22.706			-4.541
78205.000			22.706			-4.541
78304.000			22.704			-4.541
78404.000			22.704			-4.541
78504.000			22.704			-4.541
78604.000			22.704			-4.541
78704.000			22.702			-4.540
78805.000			22.703			-4.541
78904.000			22.702			-4.540
79004.000			22.700			-4.540
79105.000			22.701			-4.540
79203.000			22.700			-4.540
79304.000			22.701			-4.540
79405.000			22.700			-4.540
79504.000			22.698			-4.540
79604.000			22.699			-4.540
79705.000			22.698			-4.540
79804.000			22.698			-4.540
79903.000			22.698			-4.540
80005.000			22.697			-4.539
80104.000			22.697			-4.539
80204.000			22.696			-4.539
80305.000			22.695			-4.539
80404.000			22.694			-4.539
80504.000			22.695			-4.539
80604.000			22.694			-4.539
80704.000			22.694			-4.539
80804.000			22.694			-4.539
80905.000			22.693			-4.539
81004.000			22.692			-4.538
81104.000			22.691			-4.538
81205.000			22.691			-4.538
81303.000			22.691			-4.538
81405.000			22.691			-4.538
81504.000			22.690			-4.538
81604.000			22.689			-4.538
81705.000			22.688			-4.538
81804.000			22.688			-4.538
81904.000			22.687			-4.537
82004.000			22.687			-4.537
82104.000			22.686			-4.537
82204.000			22.686			-4.537
82305.000			22.686			-4.537
82404.000			22.685			-4.537
82504.000			22.686			-4.537
82605.000			22.686			-4.537
82703.000			22.685			-4.537
82804.000			22.685			-4.537
82905.000			22.684			-4.537
83004.000			22.683			-4.537
83104.000			22.682			-4.536
83205.000			22.682			-4.536
83304.000			22.682			-4.536
83404.000			22.680			-4.536
83505.000			22.679			-4.536
83603.000			22.679			-4.536
83704.000			22.679			-4.536
83805.000			22.677			-4.535
83904.000			22.678			-4.536
84004.000			22.677			-4.535
84105.000			22.678			-4.536
84204.000			22.678			-4.536
84303.000			22.678			-4.536
84405.000			22.677			-4.535
84504.000			22.675			-4.535
84605.000			22.675			-4.535
84704.000			22.674			-4.535
84804.000			22.674			-4.535
84905.000			22.674			-4.535
85003.000			22.675			-4.535
85104.000			22.674			-4.535
85205.000			22.671			-4.534
85304.000			22.671			-4.534
85404.000			22.671			-4.534
85505.000			22.671			-4.534
85604.000			22.670			-4.534
85703.000			22.671			-4.534
85805.000			22.671			-4.534
85904.000			22.668			-4.534
86004.000			22.669			-4.534
86105.000			22.667			-4.533
86204.000			22.668			-4.534
86304.000			22.667			-4.533
86404.000			22.666			-4.533
86504.000			22.667			-4.533
86604.000			22.666			-4.533
86705.000			22.665			-4.533
86804.000			22.665			-4.533
86904.000			22.666			-4.533
87005.000			22.666			-4.533
87103.000			22.664			-4.533
87204.000			22.664			-4.533
87305.000			22.663			-4.533
87404.000			22.663			-4.533
87504.000			22.663			-4.533
87605.000			22.662			-4.532
87704.000			22.662			-4.532
87803.000			22.661			-4.532
87904.000			22.661			-4.532
88004.000			22.660			-4.532
88105.000			22.659			-4.532
88204.000			22.658			-4.532
88304.000			22.658			-4.532
88405.000			22.658			-4.532
88503.000			22.658			-4.532
88604.000			22.657			-4.531
88705.000			22.657			-4.531
88804.000			22.656			-4.531
88904.000			22.656			-4.531
89005.000			22.656			-4.531
89104.000			22.655			-4.531
89203.000			22.654			-4.531
89305.000			22.654			-4.531
89404.000			22.654			-4.531
89504.000			22.655			-4.531
89605.000			22.655			-4.531
89704.000			22.652			-4.530
89804.000			22.652			-4.530
89904.000			22.651			-4.530
90004.000			22.651			-4.530
90104.000			22.651			-4.530
90205.000			22.651			-4.530
90304.000			22.650			-4.530
90404.000			22.650			-4.530
90505.000			22.648			-4.530
90603.000			22.647			-4.529
90704.000			22.648			-4.530
90805.000			22.647			-4.529
90904.000			22.647			-4.529
91005.000			22.647			-4.529
91104.000			22.647			-4.529
91204.000			22.646			-4.529
91304.000			22.646			-4.529
91404.000			22.646			-4.529
91504.000			22.644			-4.529
91605.000			22.644			-4.529
91704.000			22.645			-4.529
91804.000			22.643			-4.529
91905.000			22.642			-4.528
92003.000			22.643			-4.529
92104.000			22.641			-4.528
92205.000			22.640			-4.528
92304.000			22.641			-4.528
92404.000			22.641			-4.528
92505.000			22.640			-4.528
92604.000			22.640			-4.528
92703.000			22.640			-4.528
92805.000			22.639			-4.528
92904.000			22.639			-4.528
93004.000			22.638			-4.528
93105.000			22.639			-4.528
93204.000			22.638			-4.528
93304.000			22.637			-4.527
93404.000			22.638			-4.528
93504.000			22.636			-4.527
93604.000			22.635			-4.527
93705.000			22.636			-4.527
93804.000			22.636			-4.527
93904.000			22.635			-4.527
94005.000			22.635			-4.527
94103.000			22.634			-4.527
94205.000			22.633			-4.527
94304.000			22.633			-4.527
94404.000			22.632			-4.526
94505.000			22.633			-4.527
94604.000			22.632			-4.526
94704.000			22.631			-4.526
94804.000			22.630			-4.526
94904.000			22.630			-4.526
95004.000			22.630			-4.526
95105.000			22.629			-4.526
95204.000			22.628			-4.526
95303.000			22.629			-4.526
95405.000			22.628			-4.526
95504.000			22.627			-4.525
95604.000			22.627			-4.525
95705.000			22.627			-4.525
95804.000			22.627			-4.525
95904.000			22.627			-4.525
96004.000			22.626			-4.525
96104.000			22.626			-4.525
96203.000			22.625			-4.525
96305.000			22.625			-4.525
96404.000			22.625			-4.525
96504.000			22.625			-4.525
96605.000			22.625			-4.525
96703.000			22.624			-4.525
96804.000			22.622			-4.524
96905.000			22.622			-4.524
97004.000			22.622			-4.524
97104.000			22.622			-4.524
97205.000			22.622			-4.524
97304.000			22.621			-4.524
97403.000			22.621			-4.524
97504.000			22.619			-4.524
97603.000			22.619			-4.524
97705.000			22.619			-4.524
97804.000			22.619			-4.524
97904.000			22.618			-4.524
98005.000			22.617			-4.523
98104.000			22.618			-4.524
98204.000			22.618			-4.524
98304.000			22.617			-4.523
98404.000			22.617			-4.523
98504.000			22.616			-4.523
98605.000			22.616			-4.523
98704.000			22.615			-4.523
98804.000			22.615			-4.523
98905.000			22.614			-4.523
99003.000			22.614			-4.523
99104.000			22.614			-4.523
99205.000			22.614			-4.523
99304.000			22.614			-4.523
99404.000			22.613			-4.523
99505.000			22.612			-4.522
99604.000			22.612			-4.522
99703.000			22.610			-4.522
99805.000			22.609			-4.522
99904.000			22.609			-4.522
100004.000			22.610			-4.522
100105.000			22.610			-4.522
100204.000			22.609			-4.522
100304.000			22.609			-4.522
100404.000			22.608			-4.522
100504.000			22.608			-4.522
100605.000			22.607			-4.521
100704.000			22.607			-4.521
100804.000			22.607			-4.521
100905.000			22.607			-4.521
101004.000			22.606			-4.521
101103.000			22.606			-4.521
101205.000			22.605			-4.521
101304.000			22.605			-4.521
101404.000			22.604			-4.521
101505.000			22.603			-4.521
101604.000			22.603			-4.521
101704.000			22.603			-4.521
101804.000			22.603			-4.521
101904.000			22.603			-4.521
102004.000			22.602			-4.520
102105.000			22.602			-4.520
102204.000			22.601			-4.520
102304.000			22.600			-4.520
102405.000			22.600			-4.520
102503.000			22.601			-4.520
102604.000			22.599			-4.520
102705.000			22.599			-4.520
102804.000			22.599			-4.520
102904.000			22.598			-4.520
103005.000			22.598			-4.520
103104.000			22.598			-4.520
103203.000			22.597			-4.519
103305.000			22.597			-4.519
103404.000			22.598			-4.520
103504.000			22.597			-4.519
103605.000			22.596			-4.519
103704.000			22.596			-4.519
103805.000			22.596			-4.519
103903.000			22.595			-4.519
104004.000			22.594			-4.519
104105.000			22.593			-4.519
104204.000			22.593			-4.519
104304.000			22.593			-4.519
104405.000			22.593			-4.519
104504.000			22.592			-4.518
104603.000			22.592			-4.518
104705.000			22.592			-4.518
104804.000			22.591			-4.518
104904.000			22.591			-4.518
105005.000			22.591			-4.518
105104.000			22.590			-4.518
105204.000			22.590			-4.518
105304.000			22.589			-4.518
105404.000			22.590			-4.518
105504.000			22.589			-4.518
105605.000			22.589			-4.518
105704.000			22.588			-4.518
105804.000			22.588			-4.518
105905.000			22.587			-4.517
106004.000			22.587			-4.517
106104.000			22.587			-4.517
106204.000			22.587			-4.517
106304.000			22.587			-4.517
106404.000			22.586			-4.517
106505.000			22.585			-4.517
106604.000			22.584			-4.517
106704.000			22.585			-4.517
106805.000			22.584			-4.517
106903.000			22.583			-4.517
107005.000			22.584			-4.517
107104.000			22.584			-4.517
107204.000			22.583			-4.517
107305.000			22.583			-4.517
107404.000			22.583			-4.517
107504.000			22.582			-4.516
107604.000			22.582			-4.516
107704.000			22.580			-4.516
107804.000			22.580			-4.516
107905.000			22.580			-4.516
108004.000			22.580			-4.516
108104.000			22.579			-4.516
108205.000			22.580			-4.516
108304.000			22.579			-4.516
108404.000			22.578			-4.516
108504.000			22.577			-4.515
108604.000			22.577			-4.515
108704.000			22.577			-4.515
108805.000			22.576			-4.515
108904.000			22.576			-4.515
109004.000			22.575			-4.515
109105.000			22.576			-4.515
109203.000			22.574			-4.515
109304.000			22.575			-4.515
109405.000			22.574			-4.515
109504.000			22.573			-4.515
109604.000			22.573			-4.515
109705.000			22.573			-4.515
109804.000			22.571			-4.514
109903.000			22.572			-4.514
110005.000			22.571			-4.514
110104.000			22.571			-4.514
110205.000			22.571			-4.514
110304.000			22.571			-4.514
110404.000			22.570			-4.514
110505.000			22.569			-4.514
110603.000			22.569			-4.514
110704.000			22.569			-4.514
110805.000			22.569			-4.514
110904.000			22.568			-4.514
111004.000			22.568			-4.514
111105.000			22.567			-4.513
111204.000			22.568			-4.514
111303.000			22.568			-4.514
111405.000			22.568			-4.514
111504.000			22.566			-4.513
111604.000			22.565			-4.513
111705.000			22.566			-4.513
111804.000			22.567			-4.513
111904.000			22.567			-4.513
112004.000			22.564			-4.513
112104.000			22.564			-4.513
112204.000			22.563			-4.513
112305.000			22.563			-4.513
112404.000			22.563			-4.513
112504.000			22.563			-4.513
112605.000			22.562			-4.512
112703.000			22.561			-4.512
112804.000			22.561			-4.512
112905.000			22.561			-4.512
113004.000			22.560			-4.512
113104.000			22.560			-4.512
113205.000			22.560			-4.512
113304.000			22.559			-4.512
113403.000			22.558			-4.512
113504.000			22.560			-4.512
113603.000			22.559			-4.512
113705.000			22.558			-4.512
113804.000			22.558			-4.512
113904.000			22.558			-4.512
114005.000			22.558			-4.512
114104.000			22.558			-4.512
114204.000			22.557			-4.511
114304.000			22.558			-4.512
114404.000			22.557			-4.511
114504.000			22.556			-4.511
114605.000			22.555			-4.511
114704.000			22.556			-4.511
114804.000			22.556			-4.511
114905.000			22.554			-4.511
115003.000			22.554			-4.511
115104.000			22.555			-4.511
115205.000			22.553			-4.511
115304.000			22.553			-4.511
115404.000			22.553			-4.511
115505.000			22.553			-4.511
115604.000			22.553			-4.511
115703.000			22.551			-4.510
115805.000			22.551			-4.510
115904.000			22.551			-4.510
116004.000			22.551			-4.510
116105.000			22.551			-4.510
116204.000			22.550			-4.510
116304.000			22.550			-4.510
116404.000			22.550			-4.510
116504.000			22.549			-4.510
116605.000			22.549			-4.510
116704.000			22.548			-4.510
116804.000			22.547			-4.509
116905.000			22.547			-4.509
117004.000			22.548			-4.510
117103.000			22.546			-4.509
117205.000			22.546			-4.509
117304.000			22.546			-4.509
117404.000			22.545			-4.509
117505.000			22.545			-4.509
117604.000			22.546			-4.509
117704.000			22.546			-4.509
117804.000			22.545			-4.509
117904.000			22.544			-4.509
118004.000			22.545			-4.509
118105.000			22.544			-4.509
118204.000			22.544			-4.509
118304.000			22.543			-4.509
118405.000			22.543			-4.509
118503.000			22.543			-4.509
118604.000			22.543			-4.509
118705.000			22.542			-4.508
118804.000			22.541			-4.508
118904.000			22.542			-4.508
119005.000			22.542			-4.508
119104.000			22.541			-4.508
119203.000			22.540			-4.508
119305.000			22.541			-4.508
119404.000			22.540			-4.508
119504.000			22.539			-4.508
119605.000			22.539			-4.508
119704.000			22.539			-4.508
119805.000			22.538			-4.508
119904.000			22.538			-4.508
120004.000			22.538			-4.508
120104.000			22.537			-4.507
120204.000			22.537			-4.507
120304.000			22.537			-4.507
120405.000			22.536			-4.507
120504.000			22.536			-4.507
120604.000			22.535			-4.507
120705.000			22.535			-4.507
120803.000			22.535			-4.507
120904.000			22.534			-4.507
121005.000			22.534			-4.507
121104.000			22.534			-4.507
121204.000			22.534			-4.507
121305.000			22.534			-4.507
121404.000			22.533			-4.507
121503.000			22.533			-4.507
121605.000			22.533			-4.507
121704.000			22.532			-4.506
121804.000			22.532			-4.506
121905.000			22.532			-4.506
122004.000			22.531			-4.506
122104.000			22.531			-4.506
122204.000			22.531			-4.506
122304.000			22.530			-4.506
122404.000			22.530			-4.506
122505.000			22.530			-4.506
122604.000			22.530			-4.506
122704.000			22.530			-4.506
122805.000			22.529			-4.506
122903.000			22.528			-4.506
123005.000			22.528			-4.506
123104.000			22.528			-4.506
123204.000			22.528			-4.506
123305.000			22.527			-4.505
123404.000			22.526			-4.505
123504.000			22.526			-4.505
123604.000			22.525			-4.505
123704.000			22.525			-4.505
123804.000			22.525			-4.505
123905.000			22.525			-4.505
124004.000			22.525			-4.505
124104.000			22.524			-4.505
124205.000			22.524			-4.505
124303.000			22.525			-4.505
124404.000			22.526			-4.505
124505.000			22.524			-4.505
124604.000			22.523			-4.505
124704.000			22.522			-4.504
124805.000			22.522			-4.504
124904.000			22.522			-4.504
125003.000			22.523			-4.505
125105.000			22.521			-4.504
125204.000			22.521			-4.504
125304.000			22.521			-4.504
125405.000			22.520			-4.504
125504.000			22.520			-4.504
125604.000			22.520			-4.504
125704.000			22.520			-4.504
125804.000			22.520			-4.504
125904.000			22.519			-4.504
126005.000			22.519			-4.504
126104.000			22.518			-4.504
126205.000			22.518			-4.504
126304.000			22.517			-4.503
126403.000			22.516			-4.503
126505.000			22.516			-4.503
126604.000			22.517			-4.503
126704.000			22.516			-4.503
126805.000			22.516			-4.503
126904.000			22.516			-4.503
127004.000			22.516			-4.503
127104.000			22.516			-4.503
127204.000			22.516			-4.503
127303.000			22.515			-4.503
127405.000			22.514			-4.503
127504.000			22.513			-4.503
127604.000			22.512			-4.502
127705.000			22.512			-4.502
127804.000			22.513			-4.503
127904.000			22.512			-4.502
128004.000			22.511			-4.502
128104.000			22.511			-4.502
128204.000			22.511			-4.502
128305.000			22.510			-4.502
128404.000			22.511			-4.502
128504.000			22.511			-4.502
128605.000			22.510			-4.502
128703.000			22.510			-4.502
128804.000			22.509			-4.502
128905.000			22.508			-4.502
129004.000			22.509			-4.502
129104.000			22.508			-4.502
129205.000			22.508			-4.502
129304.000			22.509			-4.502
129403.000			22.508			-4.502
129504.000			22.508			-4.502
129604.000			22.507			-4.501
129705.000			22.507			-4.501
129804.000			22.507			-4.501
129904.000			22.506			-4.501
130005.000			22.506			-4.501
130103.000			22.505			-4.501
130204.000			22.505			-4.501
130305.000			22.505			-4.501
130404.000			22.505			-4.501
130504.000			22.505			-4.501
130605.000			22.504			-4.501
130704.000			22.504			-4.501
130803.000			22.504			-4.501
130905.000			22.503			-4.501
131004.000			22.503			-4.501
131104.000			22.503			-4.501
131205.000			22.503			-4.501
131304.000			22.502			-4.500
131404.000			22.502			-4.500
131504.000			22.502			-4.500
131604.000			22.501			-4.500
131704.000			22.500			-4.500
131805.000			22.501			-4.500
131904.000			22.501			-4.500
132004.000			22.501			-4.500
132105.000			22.499			-4.500
132204.000			22.499			-4.500
132304.000			22.500			-4.500
132404.000			22.500			-4.500
132504.000			22.499			-4.500
132605.000			22.498			-4.500
132704.000			22.499			-4.500
132804.000			22.499			-4.500
132905.000			22.498			-4.500
133004.000			22.497			-4.499
133104.000			22.497			-4.499
133205.000			22.497			-4.499
133303.000			22.497			-4.499
133404.000			22.497			-4.499
133505.000			22.497			-4.499
133604.000			22.497			-4.499
133704.000			22.497			-4.499
133805.000			22.494			-4.499
133904.000			22.494			-4.499
134004.000			22.494			-4.499
134105.000			22.494			-4.499
134203.000			22.495			-4.499
134304.000			22.494			-4.499
134405.000			22.493			-4.499
134504.000			22.493			-4.499
134604.000			22.493			-4.499
134705.000			22.492			-4.498
134804.000			22.492			-4.498
134903.000			22.492			-4.498
135005.000			22.493			-4.499
135103.000			22.492			-4.498
135204.000			22.492			-4.498
135305.000			22.492			-4.498
135404.000			22.490			-4.498
135504.000			22.490			-4.498
135605.000			22.490			-4.498
135704.000			22.489			-4.498
135803.000			22.488			-4.498
135904.000			22.489			-4.498
136003.000			22.489			-4.498
136105.000			22.489			-4.498
136204.000			22.489			-4.498
136304.000			22.488			-4.498
136405.000			22.488			-4.498
136504.000			22.488			-4.498
136604.000			22.488			-4.498
136704.000			22.487			-4.497
136804.000			22.487			-4.497
136903.000			22.486			-4.497
137005.000			22.486			-4.497
137104.000			22.485			-4.497
137204.000			22.485			-4.497
137305.000			22.485			-4.497
137404.000			22.484			-4.497
137504.000			22.484			-4.497
137604.000			22.483			-4.497
137704.000			22.483			-4.497
137803.000			22.484			-4.497
137905.000			22.483			-4.497
138004.000			22.483			-4.497
138104.000			22.483			-4.497
138205.000			22.482			-4.496
138304.000			22.482			-4.496
138404.000			22.482			-4.496
138504.000			22.483			-4.497
138604.000			22.482			-4.496
138703.000			22.481			-4.496
138805.000			22.480			-4.496
138904.000			22.481			-4.496
139005.000			22.481			-4.496
139104.000			22.480			-4.496
139204.000			22.479			-4.496
139305.000			22.479			-4.496
139403.000			22.478			-4.496
139504.000			22.479			-4.496
139604.000			22.479			-4.496
139704.000			22.477			-4.495
139804.000			22.477			-4.495
139905.000			22.476			-4.495
140004.000			22.477			-4.495
140104.000			22.476			-4.495
140205.000			22.475			-4.495
140304.000			22.476			-4.495
140404.000			22.476			-4.495
140504.000			22.477			-4.495
140604.000			22.477			-4.495
140704.000			22.477			-4.495
140805.000			22.476			-4.495
140904.000			22.475			-4.495
141004.000			22.475			-4.495
141105.000			22.476			-4.495
141203.000			22.476			-4.495
141304.000			22.474			-4.495
141404.000			22.473			-4.495
141504.000			22.473			-4.495
141604.000			22.473			-4.495
141705.000			22.473			-4.495
141804.000			22.472			-4.494
141904.000			22.472			-4.494
142005.000			22.471			-4.494
142103.000			22.471			-4.494
142205.000			22.471			-4.494
142304.000			22.471			-4.494
142404.000			22.471			-4.494
142505.000			22.470			-4.494
142604.000			22.470			-4.494
142704.000			22.470			-4.494
142805.000			22.469			-4.494
142904.000			22.468			-4.494
143003.000			22.468			-4.494
143105.000			22.469			-4.494
143204.000			22.468			-4.494
143304.000			22.467			-4.493
143405.000			22.467			-4.493
143504.000			22.467			-4.493
143604.000			22.467			-4.493
143705.000			22.466			-4.493
143804.000			22.467			-4.493
143903.000			22.466			-4.493
144005.000			22.466			-4.493
144104.000			22.466			-4.493
144204.000			22.466			-4.493
144305.000			22.465			-4.493
144404.000			22.465			-4.493
144504.000			22.465			-4.493
144604.000			22.465			-4.493
144704.000			22.464			-4.493
144803.000			22.464			-4.493
144905.000			22.464			-4.493
145004.000			22.463			-4.493
145104.000			22.463			-4.493
145205.000			22.463			-4.493
145304.000			22.463			-4.493
145405.000			22.463			-4.493
145503.000			22.462			-4.492
145604.000			22.462			-4.492
145704.000			22.461			-4.492
145804.000			22.461			-4.492
145904.000			22.460			-4.492
146005.000			22.459			-4.492
146104.000			22.460			-4.492
146204.000			22.459			-4.492
146305.000			22.460			-4.492
146403.000			22.460			-4.492
146504.000			22.459			-4.492
146605.000			22.458			-4.492
146704.000			22.459			-4.492
146804.000			22.458			-4.492
146905.000			22.457			-4.491
147004.000			22.457			-4.491
147104.000			22.456			-4.491
147205.000			22.456			-4.491
147303.000			22.456			-4.491
147404.000			22.456			-4.491
147504.000			22.455			-4.491
147604.000			22.455			-4.491
147704.000			22.456			-4.491
147805.000			22.456			-4.491
147904.000			22.455			-4.491
148004.000			22.455			-4.491
148105.000			22.456			-4.491
148203.000			22.455			-4.491
148304.000			22.455			-4.491
148404.000			22.455			-4.491
148504.000			22.454			-4.491
148605.000			22.453			-4.491
148704.000			22.453			-4.491
148804.000			22.453			-4.491
148905.000			22.453			-4.491
149004.000			22.452			-4.490
149103.000			22.451			-4.490
149205.000			22.452			-4.490
149304.000			22.451			-4.490
149404.000			22.451			-4.490
149505.000			22.451			-4.490
149604.000			22.451			-4.490
149704.000			22.449			-4.490
149805.000			22.450			-4.490
149904.000			22.449			-4.490
150003.000			22.448			-4.490
150105.000			22.448			-4.490
150204.000			22.448			-4.490
150304.000			22.448			-4.490
150405.000			22.447			-4.489
150504.000			22.447			-4.489
150604.000			22.448			-4.490
150705.000			22.447			-4.489
150804.000			22.447			-4.489
150903.000			22.447			-4.489
151005.000			22.446			-4.489
151104.000			22.446			-4.489
151204.000			22.445			-4.489
151305.000			22.444			-4.489
151404.000			22.444			-4.489
151504.000			22.444			-4.489
151604.000			22.444			-4.489
151704.000			22.445			-4.489
151803.000			22.444			-4.489
151904.000			22.443			-4.489
152004.000			22.443			-4.489
152105.000			22.442			-4.488
152204.000			22.444			-4.489
152304.000			22.444			-4.489
152405.000			22.443			-4.489
152503.000			22.443			-4.489
152604.000			22.442			-4.488
152705.000			22.441			-4.488
152804.000			22.441			-4.488
152904.000			22.442			-4.488
153005.000			22.441			-4.488
153104.000			22.441			-4.488
153203.000			22.441			-4.488
153305.000			22.440			-4.488
153403.000			22.440			-4.488
153504.000			22.440			-4.488
153605.000			22.439			-4.488
153704.000			22.439			-4.488
153804.000			22.440			-4.488
153905.000			22.440			-4.488
154004.000			22.438			-4.488
154103.000			22.437			-4.487
154205.000			22.437			-4.487
154304.000			22.437			-4.487
154404.000			22.437			-4.487
154505.000			22.438			-4.488
154604.000			22.437			-4.487
154704.000			22.436			-4.487
154805.000			22.437			-4.487
154904.000			22.436			-4.487
155003.000			22.436			-4.487
155104.000			22.436			-4.487
155204.000			22.436			-4.487
155305.000			22.436			-4.487
155404.000			22.435			-4.487
155504.000			22.435			-4.487
155605.000			22.434			-4.487
155704.000			22.434			-4.487
155804.000			22.434			-4.487
155904.000			22.434			-4.487
156004.000			22.433			-4.487
156104.000			22.433			-4.487
156205.000			22.433			-4.487
156304.000			22.433			-4.487
156404.000			22.432			-4.486
156505.000			22.431			-4.486
156604.000			22.432			-4.486
156704.000			22.432			-4.486
156804.000			22.432			-4.486
156904.000			22.432			-4.486
157004.000			22.430			-4.486
157105.000			22.431			-4.486
157204.000			22.431			-4.486
157304.000			22.431			-4.486
157405.000			22.430			-4.486
157504.000			22.430			-4.486
157604.000			22.429			-4.486
157704.000			22.430			-4.486
157804.000			22.429			-4.486
157904.000			22.428			-4.486
158005.000			22.429			-4.486
158104.000			22.430			-4.486
158205.000			22.429			-4.486
158304.000			22.428			-4.486
158404.000			22.427			-4.485
158505.000			22.427			-4.485
158603.000			22.426			-4.485
158704.000			22.426			-4.485
158805.000			22.426			-4.485
158904.000			22.425			-4.485
159004.000			22.425			-4.485
159105.000			22.425			-4.485
159204.000			22.425			-4.485
159304.000			22.425			-4.485
159405.000			22.424			-4.485
159503.000			22.425			-4.485
159604.000			22.424			-4.485
159705.000			22.423			-4.485
159804.000			22.422			-4.484
159904.000			22.423			-4.485
160005.000			22.423			-4.485
160104.000			22.422			-4.484
160203.000			22.422			-4.484
160305.000			22.422			-4.484
160403.000			22.422			-4.484
160504.000			22.422			-4.484
160605.000			22.421			-4.484
160704.000			22.421			-4.484
160804.000			22.421			-4.484
160905.000			22.421			-4.484
161004.000			22.421			-4.484
161103.000			22.420			-4.484
161205.000			22.420			-4.484
161304.000			22.419			-4.484
161405.000			22.419			-4.484
161504.000			22.418			-4.484
161604.000			22.418			-4.484
161705.000			22.418			-4.484
161803.000			22.418			-4.484
161904.000			22.419			-4.484
162004.000			22.418			-4.484
162104.000			22.418			-4.484
162204.000			22.418			-4.484
162305.000			22.417			-4.483
162404.000			22.417			-4.483
162504.000			22.417			-4.483
162605.000			22.416			-4.483
162703.000			22.416			-4.483
162804.000			22.417			-4.483
162904.000			22.416			-4.483
163004.000			22.416			-4.483
163104.000			22.414			-4.483
163205.000			22.415			-4.483
163304.000			22.415			-4.483
163404.000			22.415			-4.483
163505.000			22.414			-4.483
163603.000			22.414			-4.483
163704.000			22.414			-4.483
163805.000			22.414			-4.483
163904.000			22.414			-4.483
164004.000			22.414			-4.483
164105.000			22.414			-4.483
164204.000			22.413			-4.483
164304.000			22.414			-4.483
164405.000			22.413			-4.483
164503.000			22.412			-4.482
164605.000			22.412			-4.482
164704.000			22.412			-4.482
164804.000			22.413			-4.483
164905.000			22.412			-4.482
165004.000			22.412			-4.482
165104.000			22.411			-4.482
165204.000			22.411			-4.482
165304.000			22.412			-4.482
165403.000			22.411			-4.482
165505.000			22.411			-4.482
165604.000			22.411			-4.482
165704.000			22.411			-4.482
165805.000			22.410			-4.482
165904.000			22.410			-4.482
166004.000			22.411			-4.482
166104.000			22.410			-4.482
166204.000			22.410			-4.482
166304.000			22.409			-4.482
166405.000			22.410			-4.482
166504.000			22.410			-4.482
166604.000			22.409			-4.482
166705.000			22.410			-4.482
166804.000			22.410			-4.482
166904.000			22.408			-4.482
167004.000			22.408			-4.482
167104.000			22.407			-4.481
167204.000			22.407			-4.481
167305.000			22.408			-4.482
167404.000			22.407			-4.481
167504.000			22.406			-4.481
167605.000			22.407			-4.481
167703.000			22.407			-4.481
167805.000			22.406			-4.481
167903.000			22.405			-4.481
168004.000			22.405			-4.481
168105.000			22.405			-4.481
168204.000			22.404			-4.481
168304.000			22.405			-4.481
168405.000			22.404			-4.481
168504.000			22.404			-4.481
168603.000			22.404			-4.481
168705.000			22.403			-4.481
168803.000			22.403			-4.481
168904.000			22.402			-4.480
169005.000			22.401			-4.480
169104.000			22.401			-4.480
169204.000			22.401			-4.480
169305.000			22.401			-4.480
169404.000			22.400			-4.480
169503.000			22.399			-4.480
169605.000			22.400			-4.480
169704.000			22.400			-4.480
169804.000			22.399			-4.480
169905.000			22.399			-4.480
170004.000			22.398			-4.480
170104.000			22.398			-4.480
170205.000			22.398			-4.480
170304.000			22.397			-4.479
170403.000			22.397			-4.479
170505.000			22.396			-4.479
170604.000			22.397			-4.479
170704.000			22.396			-4.479
170805.000			22.397			-4.479
170904.000			22.396			-4.479
171005.000			22.395			-4.479
171104.000			22.395			-4.479
171204.000			22.395			-4.479
171304.000			22.394			-4.479
171404.000			22.393			-4.479
171504.000			22.394			-4.479
171605.000			22.394			-4.479
171704.000			22.394			-4.479
171804.000			22.394			-4.479
171905.000			22.394			-4.479
172004.000			22.392			-4.478
172104.000			22.391			-4.478
172204.000			22.392			-4.478
172304.000			22.392			-4.478
172404.000			22.392			-4.478
172505.000			22.392			-4.478
172604.000			22.391			-4.478
172704.000			22.390			-4.478
172805.000			22.391			-4.478
172904.000			22.389			-4.478
173004.000			22.390			-4.478
173104.000			22.389			-4.478
173204.000			22.389			-4.478
173304.000			22.389			-4.478
173405.000			22.390			-4.478
173504.000			22.389			-4.478
173604.000			22.388			-4.478
173705.000			22.387			-4.477
173804.000			22.387			-4.477
173904.000			22.387			-4.477
174004.000			22.387			-4.477
174104.000			22.387			-4.477
174205.000			22.388			-4.478
174304.000			22.386			-4.477
174404.000			22.386			-4.477
174505.000			22.385			-4.477
174604.000			22.386			-4.477
174704.000			22.386			-4.477
174805.000			22.387			-4.477
174903.000			22.387			-4.477
175004.000			22.385			-4.477
175105.000			22.385			-4.477
175204.000			22.385			-4.477
175304.000			22.385			-4.477
175405.000			22.384			-4.477
175504.000			22.385			-4.477
175604.000			22.384			-4.477
175705.000			22.382			-4.476
175803.000			22.383			-4.477
175904.000			22.383			-4.477
176005.000			22.383			-4.477
176104.000			22.382			-4.476
176204.000			22.382			-4.476
176305.000			22.383			-4.477
176404.000			22.382			-4.476
176504.000			22.383			-4.477
176605.000			22.382			-4.476
176703.000			22.382			-4.476
176804.000			22.382			-4.476
176905.000			22.381			-4.476
177004.000			22.381			-4.476
177104.000			22.381			-4.476
177205.000			22.380			-4.476
177304.000			22.379			-4.476
177405.000			22.379			-4.476
177504.000			22.379			-4.476
177603.000			22.378			-4.476
177705.000			22.379			-4.476
177804.000			22.379			-4.476
177904.000			22.379			-4.476
178005.000			22.379			-4.476
178104.000			22.379			-4.476
178204.000			22.378			-4.476
178305.000			22.378			-4.476
178404.000			22.378			-4.476
178503.000			22.378			-4.476
178605.000			22.377			-4.475
178703.000			22.377			-4.475
178804.000			22.377			-4.475
178905.000			22.376			-4.475
179004.000			22.376			-4.475
179104.000			22.377			-4.475
179205.000			22.376			-4.475
179304.000			22.376			-4.475
179404.000			22.374			-4.475
179505.000			22.375			-4.475
179603.000			22.375			-4.475
179704.000			22.375			-4.475
179805.000			22.375			-4.475
179904.000			22.374			-4.475
180004.000			22.373			-4.475
180105.000			22.373			-4.475
180204.000			22.374			-4.475
180304.000			22.374			-4.475
180405.000			22.373			-4.475
180503.000			22.373			-4.475
180605.000			22.372			-4.474
180704.000			22.372			-4.474
180804.000			22.372			-4.474
180905.000			22.371			-4.474
181004.000			22.372			-4.474
181104.000			22.372			-4.474
181204.000			22.372			-4.474
181304.000			22.372			-4.474
181403.000			22.371			-4.474
181505.000			22.370			-4.474
181604.000			22.370			-4.474
181704.000			22.370			-4.474
181805.000			22.369			-4.474
181904.000			22.369			-4.474
182004.000			22.369			-4.474
182104.000			22.369			-4.474
182204.000			22.369			-4.474
182303.000			22.370			-4.474
182405.000			22.369			-4.474
182504.000			22.368			-4.474
182604.000			22.368			-4.474
182705.000			22.367			-4.473
182804.000			22.368			-4.474
182904.000			22.368			-4.474
183004.000			22.367			-4.473
183104.000			22.366			-4.473
183203.000			22.367			-4.473
183305.000			22.367			-4.473
183404.000			22.367			-4.473
183504.000			22.366			-4.473
183605.000			22.365			-4.473
183704.000			22.365			-4.473
183805.000			22.366			-4.473
183903.000			22.365			-4.473
184004.000			22.365			-4.473
184105.000			22.365			-4.473
184204.000			22.365			-4.473
184304.000			22.366			-4.473
184405.000			22.365			-4.473
184504.000			22.365			-4.473
184604.000			22.364			-4.473
184705.000			22.363			-4.473
184803.000			22.364			-4.473
184904.000			22.363			-4.473
185005.000			22.363			-4.473
185104.000			22.363			-4.473
185204.000			22.363			-4.473
185305.000			22.362			-4.472
185404.000			22.362			-4.472
185504.000			22.362			-4.472
185605.000			22.362			-4.472
185703.000			22.361			-4.472
185804.000			22.361			-4.472
185905.000			22.362			-4.472
186004.000			22.362			-4.472
186104.000			22.362			-4.472
186205.000			22.362			-4.472
186304.000			22.362			-4.472
186404.000			22.361			-4.472
186505.000			22.360			-4.472
186603.000			22.360			-4.472
186704.000			22.360			-4.472
186805.000			22.360			-4.472
186904.000			22.360			-4.472
187005.000			22.360			-4.472
187104.000			22.360			-4.472
187204.000			22.360			-4.472
187305.000			22.358			-4.472
187404.000			22.359			-4.472
187503.000			22.359			-4.472
187605.000			22.358			-4.472
187704.000			22.358			-4.472
187804.000			22.358			-4.472
187905.000			22.358			-4.472
188004.000			22.358			-4.472
188104.000			22.357			-4.471
188205.000			22.358			-4.472
188304.000			22.357			-4.471
188403.000			22.356			-4.471
188505.000			22.355			-4.471
188603.000			22.356			-4.471
188704.000			22.356			-4.471
188805.000			22.356			-4.471
188904.000			22.356			-4.471
189004.000			22.355			-4.471
189105.000			22.354			-4.471
189204.000			22.354			-4.471
189303.000			22.355			-4.471
189405.000			22.355			-4.471
189503.000			22.354			-4.471
189604.000			22.354			-4.471
189705.000			22.353			-4.471
189804.000			22.354			-4.471
189904.000			22.354			-4.471
190005.000			22.354			-4.471
190104.000			22.354			-4.471
190203.000			22.353			-4.471
190304.000			22.352			-4.470
190403.000			22.352			-4.470
190505.000			22.353			-4.471
190604.000			22.352			-4.470
190704.000			22.353			-4.471
190805.000			22.353			-4.471
190904.000			22.351			-4.470
191004.000			22.351			-4.470
191104.000			22.350			-4.470
191204.000			22.351			-4.470
191304.000			22.351			-4.470
191405.000			22.351			-4.470
191504.000			22.350			-4.470
191604.000			22.350			-4.470
191705.000			22.349			-4.470
191804.000			22.350			-4.470
191904.000			22.350			-4.470
192004.000			22.350			-4.470
192104.000			22.349			-4.470
192204.000			22.348			-4.470
192305.000			22.347			-4.469
192404.000			22.347			-4.469
192504.000			22.348			-4.470
192605.000			22.346			-4.469
192704.000			22.347			-4.469
192804.000			22.346			-4.469
192904.000			22.347			-4.469
193004.000			22.347			-4.469
193104.000			22.346			-4.469
193205.000			22.346			-4.469
193304.000			22.345			-4.469
193405.000			22.345			-4.469
193504.000			22.345			-4.469
193604.000			22.346			-4.469
193705.000			22.345			-4.469
193803.000			22.345			-4.469
193904.000			22.345			-4.469
194005.000			22.344			-4.469
194104.000			22.344			-4.469
194204.000			22.343			-4.469
194305.000			22.343			-4.469
194404.000			22.343			-4.469
194504.000			22.343			-4.469
194605.000			22.343			-4.469
194703.000			22.343			-4.469
194804.000			22.342			-4.468
194905.000			22.342			-4.468
195004.000			22.342			-4.468
195104.000			22.342			-4.468
195205.000			22.342			-4.468
195304.000			22.342			-4.468
195403.000			22.341			-4.468
195505.000			22.341			-4.468
195603.000			22.340			-4.468
195704.000			22.341			-4.468
195805.000			22.340			-4.468
195904.000			22.341			-4.468
196004.000			22.340			-4.468
196105.000			22.340			-4.468
196204.000			22.340			-4.468
196303.000			22.339			-4.468
196405.000			22.340			-4.468
196503.000			22.339			-4.468
196605.000			22.339			-4.468
196704.000			22.339			-4.468
196804.000			22.339			-4.468
196905.000			22.338			-4.468
197004.000			22.337			-4.467
197104.000			22.338			-4.468
197204.000			22.338			-4.468
197304.000			22.337			-4.467
197403.000			22.337			-4.467
197505.000			22.337			-4.467
197604.000			22.336			-4.467
197704.000			22.337			-4.467
197805.000			22.336			-4.467
197904.000			22.336			-4.467
198004.000			22.336			-4.467
198104.000			22.335			-4.467
198204.000			22.334			-4.467
198303.000			22.336			-4.467
198405.000			22.336			-4.467
198504.000			22.335			-4.467
198604.000			22.335			-4.467
198705.000			22.335			-4.467
198804.000			22.335			-4.467
198904.000			22.334			-4.467
199004.000			22.334			-4.467
199104.000			22.334			-4.467
199203.000			22.333			-4.467
199305.000			22.334			-4.467
199404.000			22.332			-4.466
199504.000			22.332			-4.466
199605.000			22.332			-4.466
199704.000			22.333			-4.467
199805.000			22.333			-4.467
199903.000			22.332			-4.466
200004.000			22.332			-4.466
200105.000			22.332			-4.466
200204.000			22.331			-4.466
200304.000			22.330			-4.466
200405.000			22.331			-4.466
200504.000			22.331			-4.466
200604.000			22.330			-4.466
200705.000			22.329			-4.466
200803.000			22.330			-4.466
200904.000			22.330			-4.466
201005.000			22.329			-4.466
201104.000			22.330			-4.466
201204.000			22.329			-4.466
201305.000			22.329			-4.466
201404.000			22.329			-4.466
201503.000			22.329			-4.466
201605.000			22.329			-4.466
201704.000			22.329			-4.466
201804.000			22.329			-4.466
201905.000			22.327			-4.465
202004.000			22.327			-4.465
202104.000			22.328			-4.466
202205.000			22.327			-4.465
202304.000			22.326			-4.465
202403.000			22.327			-4.465
202505.000			22.328			-4.466
202604.000			22.328			-4.466
202704.000			22.327			-4.465
202805.000			22.326			-4.465
202904.000			22.326			-4.465
203005.000			22.326			-4.465
203103.000			22.326			-4.465
203204.000			22.327			-4.465
203304.000			22.327			-4.465
203404.000			22.327			-4.465
203504.000			22.326			-4.465
203605.000			22.326			-4.465
203704.000			22.326			-4.465
203804.000			22.325			-4.465
203905.000			22.324			-4.465
204003.000			22.324			-4.465
204104.000			22.324			-4.465
204205.000			22.323			-4.465
204304.000			22.325			-4.465
204404.000			22.324			-4.465
204505.000			22.324			-4.465
204604.000			22.324			-4.465
204703.000			22.323			-4.465
204805.000			22.323			-4.465
204904.000			22.323			-4.465
205004.000			22.322			-4.464
205105.000			22.322			-4.464
205204.000			22.321			-4.464
205304.000			22.322			-4.464
205405.000			22.322			-4.464
205504.000			22.321			-4.464
205603.000			22.320			-4.464
205705.000			22.320			-4.464
205804.000			22.320			-4.464
205904.000			22.319			-4.464
206005.000			22.319			-4.464
206104.000			22.320			-4.464
206205.000			22.319			-4.464
206303.000			22.318			-4.464
206404.000			22.318			-4.464
206505.000			22.319			-4.464
206604.000			22.319			-4.464
206704.000			22.319			-4.464
206805.000			22.318			-4.464
206904.000			22.318			-4.464
207004.000			22.318			-4.464
207105.000			22.318			-4.464
207203.000			22.317			-4.463
207304.000			22.316			-4.463
207405.000			22.317			-4.463
207504.000			22.317			-4.463
207604.000			22.317			-4.463
207705.000			22.316			-4.463
207804.000			22.317			-4.463
207904.000			22.316			-4.463
208005.000			22.315			-4.463
208103.000			22.315			-4.463
208204.000			22.314			-4.463
208305.000			22.315			-4.463
208404.000			22.315			-4.463
208504.000			22.314			-4.463
208605.000			22.314			-4.463
208704.000			22.313			-4.463
208803.000			22.313			-4.463
208905.000			22.314			-4.463
209004.000			22.314			-4.463
209104.000			22.313			-4.463
209205.000			22.313			-4.463
209304.000			22.313			-4.463
209405.000			22.313			-4.463
209504.000			22.313			-4.463
209604.000			22.313			-4.463
209704.000			22.313			-4.463
209804.000			22.312			-4.462
209904.000			22.311			-4.462
210005.000			22.311			-4.462
210104.000			22.312			-4.462
210204.000			22.312			-4.462
210305.000			22.311			-4.462
210403.000			22.310			-4.462
210504.000			22.311			-4.462
210605.000			22.310			-4.462
210704.000			22.309			-4.462
210804.000			22.310			-4.462
210905.000			22.309			-4.462
211004.000			22.309			-4.462
211103.000			22.308			-4.462
211205.000			22.309			-4.462
211303.000			22.309			-4.462
211404.000			22.309			-4.462
211505.000			22.308			-4.462
211604.000			22.308			-4.462
211704.000			22.308			-4.462
211805.000			22.307			-4.461
211904.000			22.306			-4.461
212003.000			22.307			-4.461
212105.000			22.307			-4.461
212204.000			22.307			-4.461
212304.000			22.307			-4.461
212405.000			22.307			-4.461
212504.000			22.307			-4.461
212605.000			22.306			-4.461
212704.000			22.306			-4.461
212804.000			22.306			-4.461
212904.000			22.306			-4.461
213004.000			22.305			-4.461
213104.000			22.305			-4.461
213205.000			22.305			-4.461
213304.000			22.305			-4.461
213404.000			22.305			-4.461
213505.000			22.304			-4.461
213603.000			22.303			-4.461
213704.000			22.303			-4.461
213805.000			22.304			-4.461
213904.000			22.304			-4.461
214004.000			22.304			-4.461
214105.000			22.303			-4.461
214204.000			22.302			-4.460
214303.000			22.303			-4.461
214405.000			22.302			-4.460
214503.000			22.302			-4.460
214604.000			22.302			-4.460
214705.000			22.302			-4.460
214804.000			22.302			-4.460
214904.000			22.301			-4.460
215005.000			22.302			-4.460
215104.000			22.301			-4.460
215203.000			22.301			-4.460
215305.000			22.301			-4.460
215404.000			22.301			-4.460
215504.000			22.301			-4.460
215605.000			22.301			-4.460
215704.000			22.301			-4.460
215805.000			22.301			-4.460
215904.000			22.300			-4.460
216004.000			22.299			-4.460
216104.000			22.299			-4.460
216204.000			22.300			-4.460
216304.000			22.300			-4.460
216405.000			22.300			-4.460
216504.000			22.299			-4.460
216604.000			22.298			-4.460
216705.000			22.298			-4.460
216804.000			22.299			-4.460
216904.000			22.299			-4.460
217004.000			22.299			-4.460
217104.000			22.298			-4.460
217204.000			22.298			-4.460
217305.000			22.297			-4.459
217404.000			22.296			-4.459
217504.000			22.296			-4.459
217605.000			22.296			-4.459
217704.000			22.296			-4.459
217804.000			22.296			-4.459
217904.000			22.296			-4.459
218004.000			22.296			-4.459
218104.000			22.295			-4.459
218205.000			22.296			-4.459
218304.000			22.295			-4.459
218404.000			22.295			-4.459
218505.000			22.296			-4.459
218604.000			22.295			-4.459
218704.000			22.295			-4.459
218804.000			22.294			-4.459
218904.000			22.293			-4.459
219003.000			22.294			-4.459
219104.000			22.294			-4.459
219204.000			22.293			-4.459
219305.000			22.294			-4.459
219404.000			22.294			-4.459
219504.000			22.293			-4.459
219605.000			22.293			-4.459
219703.000			22.293			-4.459
219804.000			22.293			-4.459
219904.000			22.293			-4.459
220004.000			22.291			-4.458
220104.000			22.291			-4.458
220205.000			22.292			-4.458
220304.000			22.291			-4.458
220404.000			22.292			-4.458
220505.000			22.291			-4.458
220603.000			22.291			-4.458
220704.000			22.291			-4.458
220805.000			22.291			-4.458
220904.000			22.291			-4.458
221004.000			22.290			-4.458
221105.000			22.290			-4.458
221204.000			22.290			-4.458
221303.000			22.289			-4.458
221405.000			22.289			-4.458
221503.000			22.289			-4.458
221604.000			22.289			-4.458
221705.000			22.290			-4.458
221804.000			22.290			-4.458
221904.000			22.288			-4.458
222005.000			22.289			-4.458
222104.000			22.289			-4.458
222203.000			22.289			-4.458
222304.000			22.290			-4.458
222403.000			22.289			-4.458
222505.000			22.289			-4.458
222604.000			22.288			-4.458
222704.000			22.288			-4.458
222805.000			22.288			-4.458
222904.000			22.286			-4.457
223004.000			22.287			-4.457
223104.000			22.286			-4.457
223204.000			22.286			-4.457
223303.000			22.286			-4.457
223405.000			22.286			-4.457
223504.000			22.285			-4.457
223604.000			22.286			-4.457
223705.000			22.285			-4.457
223804.000			22.285			-4.457
223904.000			22.285			-4.457
224004.000			22.285			-4.457
224104.000			22.286			-4.457
224204.000			22.284			-4.457
224305.000			22.284			-4.457
224404.000			22.285			-4.457
224504.000			22.285			-4.457
224605.000			22.284			-4.457
224704.000			22.285			-4.457
224804.000			22.284			-4.457
224904.000			22.284			-4.457
225004.000			22.284			-4.457
225104.000			22.283			-4.457
225205.000			22.284			-4.457
225304.000			22.283			-4.457
225405.000			22.282			-4.456
225504.000			22.281			-4.456
225604.000			22.282			-4.456
225705.000			22.282			-4.456
225803.000			22.282			-4.456
225904.000			22.282			-4.456
226005.000			22.282			-4.456
226104.000			22.282			-4.456
226204.000			22.282			-4.456
226305.000			22.281			-4.456
226404.000			22.281			-4.456
226503.000			22.280			-4.456
226605.000			22.280			-4.456
226703.000			22.281			-4.456
226804.000			22.282			-4.456
226905.000			22.281			-4.456
227004.000			22.281			-4.456
227104.000			22.281			-4.456
227205.000			22.281			-4.456
227304.000			22.280			-4.456
227403.000			22.280			-4.456
227505.000			22.279			-4.456
227604.000			22.279			-4.456
227704.000			22.279			-4.456
227805.000			22.279			-4.456
227904.000			22.278			-4.456
228004.000			22.278			-4.456
228105.000			22.277			-4.455
228204.000			22.277			-4.455
228303.000			22.278			-4.456
228405.000			22.277			-4.455
228504.000			22.277			-4.455
228605.000			22.277			-4.455
228704.000			22.277			-4.455
228804.000			22.276			-4.455
228905.000			22.276			-4.455
229004.000			22.276			-4.455
229104.000			22.275			-4.455
229204.000			22.275			-4.455
229304.000			22.275			-4.455
229404.000			22.275			-4.455
229505.000			22.274			-4.455
229604.000			22.274			-4.455
229704.000			22.275			-4.455
229805.000			22.274			-4.455
229904.000			22.274			-4.455
230004.000			22.274			-4.455
230104.000			22.273			-4.455
230204.000			22.274			-4.455
230304.000			22.273			-4.455
230405.000			22.273			-4.455
230504.000			22.273			-4.455
230604.000			22.274			-4.455
230705.000			22.274			-4.455
230804.000			22.273			-4.455
230904.000			22.272			-4.454
231004.000			22.273			-4.455
231104.000			22.273			-4.455
231204.000			22.271			-4.454
231305.000			22.271			-4.454
231404.000			22.271			-4.454
231504.000			22.272			-4.454
231605.000			22.272			-4.454
231703.000			22.271			-4.454
231805.000			22.271			-4.454
231904.000			22.272			-4.454
232004.000			22.271			-4.454
232105.000			22.271			-4.454
232204.000			22.271			-4.454
232304.000			22.270			-4.454
232405.000			22.270			-4.454
232504.000			22.269			-4.454
232603.000			22.270			-4.454
232705.000			22.270			-4.454
232804.000			22.269			-4.454
232904.000			22.269			-4.454
233005.000			22.269			-4.454
233104.000			22.268			-4.454
233204.000			22.269			-4.454
233304.000			22.268			-4.454
233404.000			22.267			-4.453
233503.000			22.267			-4.453
233605.000			22.268			-4.454
233704.000			22.268			-4.454
233804.000			22.268			-4.454
233905.000			22.267			-4.453
234004.000			22.266			-4.453
234104.000			22.267			-4.453
234204.000			22.267			-4.453
234304.000			22.267			-4.453
234403.000			22.266			-4.453
234505.000			22.266			-4.453
234604.000			22.267			-4.453
234704.000			22.266			-4.453
234805.000			22.266			-4.453
234904.000			22.267			-4.453
235005.000			22.267			-4.453
235103.000			22.266			-4.453
235204.000			22.266			-4.453
235305.000			22.265			-4.453
235404.000			22.264			-4.453
235504.000			22.264			-4.453
235605.000			22.264			-4.453
235704.000			22.265			-4.453
235804.000			22.264			-4.453
235905.000			22.264			-4.453
236003.000			22.264			-4.453
236104.000			22.263			-4.453
236205.000			22.263			-4.453
236304.000			22.262			-4.452
236404.000			22.263			-4.453
236505.000			22.263			-4.453
236604.000			22.264			-4.453
236704.000			22.262			-4.452
236805.000			22.263			-4.453
236903.000			22.262			-4.452
237004.000			22.262			-4.452
237105.000			22.263			-4.453
237204.000			22.263			-4.453
237304.000			22.262			-4.452
237405.000			22.261			-4.452
237504.000			22.262			-4.452
237603.000			22.261			-4.452
237705.000			22.261			-4.452
237804.000			22.261			-4.452
237904.000			22.260			-4.452
238005.000			22.260			-4.452
238104.000			22.260			-4.452
238205.000			22.261			-4.452
238304.000			22.260			-4.452
238404.000			22.260			-4.452
238504.000			22.259			-4.452
238604.000			22.259			-4.452
238703.000			22.259			-4.452
238805.000			22.260			-4.452
238904.000			22.259			-4.452
239004.000			22.258			-4.452
239105.000			22.258			-4.452
239204.000			22.258			-4.452
239304.000			22.258			-4.452
239404.000			22.258			-4.452
239504.000			22.257			-4.451
239603.000			22.258			-4.452
239705.000			22.257			-4.451
239804.000			22.257			-4.451
239904.000			22.258			-4.452
240005.000			22.257			-4.451
240104.000			22.257			-4.451
240204.000			22.256			-4.451
240304.000			22.256			-4.451
240404.000			22.256			-4.451
240504.000			22.256			-4.451
240605.000			22.256			-4.451
240704.000			22.256			-4.451
240804.000			22.256			-4.451
240905.000			22.256			-4.451
241004.000			22.255			-4.451
241104.000			22.256			-4.451
241204.000			22.255			-4.451
241304.000			22.254			-4.451
241405.000			22.254			-4.451
241504.000			22.254			-4.451
241604.000			22.254			-4.451
241705.000			22.254			-4.451
241804.000			22.254			-4.451
241904.000			22.255			-4.451
242005.000			22.254			-4.451
242103.000			22.252			-4.450
242204.000			22.254			-4.451
242305.000			22.253			-4.451
242404.000			22.252			-4.450
242504.000			22.252			-4.450
242605.000			22.252			-4.450
242704.000			22.252			-4.450
242803.000			22.251			-4.450
242905.000			22.251			-4.450
243003.000			22.252			-4.450
243104.000			22.252			-4.450
243205.000			22.251			-4.450
243304.000			22.252			-4.450
243404.000			22.252			-4.450
243505.000			22.251			-4.450
243604.000			22.250			-4.450
243703.000			22.251			-4.450
243805.000			22.250			-4.450
243904.000			22.250			-4.450
244004.000			22.251			-4.450
244105.000			22.250			-4.450
244204.000			22.250			-4.450
244304.000			22.250			-4.450
244405.000			22.249			-4.450
244504.000			22.249			-4.450
244603.000			22.249			-4.450
244704.000			22.249			-4.450
244804.000			22.250			-4.450
244905.000			22.249			-4.450
245004.000			22.248			-4.450
245104.000			22.249			-4.450
245205.000			22.249			-4.450
245304.000			22.248			-4.450
245404.000			22.247			-4.449
245504.000			22.247			-4.449
245604.000			22.248			-4.450
245704.000			22.248			-4.450
245805.000			22.247			-4.449
245904.000			22.246			-4.449
246004.000			22.246			-4.449
246105.000			22.246			-4.449
246204.000			22.246			-4.449
246304.000			22.247			-4.449
246404.000			22.246			-4.449
246504.000			22.246			-4.449
246604.000			22.246			-4.449
246705.000			22.246			-4.449
246804.000			22.246			-4.449
246904.000			22.245			-4.449
247005.000			22.244			-4.449
247104.000			22.245			-4.449
247204.000			22.246			-4.449
247304.000			22.245			-4.449
247404.000			22.245			-4.449
247504.000			22.244			-4.449
247605.000			22.243			-4.449
247704.000			22.244			-4.449
247805.000			22.244			-4.449
247904.000			22.244			-4.449
248003.000			22.243			-4.449
248105.000			22.243			-4.449
248203.000			22.243			-4.449
248304.000			22.242			-4.448
248405.000			22.243			-4.449
248504.000			22.242			-4.448
248604.000			22.242			-4.448
248705.000			22.241			-4.448
248804.000			22.242			-4.448
248903.000			22.241			-4.448
249005.000			22.242			-4.448
249104.000			22.242			-4.448
249204.000			22.241			-4.448
249305.000			22.241			-4.448
249404.000			22.241			-4.448
249504.000			22.241			-4.448
249605.000			22.241			-4.448
249704.000			22.240			-4.448
249803.000			22.240			-4.448
249905.000			22.239			-4.448
250004.000			22.239			-4.448
250104.000			22.240			-4.448
250205.000			22.239			-4.448
250304.000			22.239			-4.448
250404.000			22.239			-4.448
250504.000			22.238			-4.448
250604.000			22.239			-4.448
250703.000			22.238			-4.448
250805.000			22.239			-4.448
250904.000			22.239			-4.448
251005.000			22.238			-4.448
251104.000			22.238			-4.448
251204.000			22.238			-4.448
251305.000			22.238			-4.448
251403.000			22.237			-4.447
251504.000			22.236			-4.447
251605.000			22.237			-4.447
251704.000			22.236			-4.447
251804.000			22.237			-4.447
251905.000			22.238			-4.448
252004.000			22.237			-4.447
252104.000			22.236			-4.447
252205.000			22.236			-4.447
252303.000			22.235			-4.447
252404.000			22.236			-4.447
252505.000			22.236			-4.447
252604.000			22.236			-4.447
252704.000			22.236			-4.447
252805.000			22.234			-4.447
252904.000			22.235			-4.447
253003.000			22.235			-4.447
253105.000			22.235			-4.447
253203.000			22.235			-4.447
253304.000			22.235			-4.447
253405.000			22.235			-4.447
253504.000			22.235			-4.447
253604.000			22.234			-4.447
253705.000			22.235			-4.447
253804.000			22.234			-4.447
253903.000			22.234			-4.447
254005.000			22.234			-4.447
254104.000			22.234			-4.447
254205.000			22.234			-4.447
254304.000			22.233			-4.447
254404.000			22.233			-4.447
254505.000			22.232			-4.446
254604.000			22.233			-4.447
254704.000			22.232			-4.446
254804.000			22.232			-4.446
254904.000			22.233			-4.447
255004.000			22.233			-4.447
255105.000			22.233			-4.447
255204.000			22.232			-4.446
255304.000			22.232			-4.446
255405.000			22.232			-4.446
255503.000			22.231			-4.446
255604.000			22.231			-4.446
255704.000			22.231			-4.446
255804.000			22.231			-4.446
255904.000			22.231			-4.446
256005.000			22.231			-4.446
256104.000			22.231			-4.446
256204.000			22.231			-4.446
256305.000			22.230			-4.446
256403.000			22.230			-4.446
256504.000			22.230			-4.446
256605.000			22.230			-4.446
256704.000			22.229			-4.446
256804.000			22.229			-4.446
256905.000			22.229			-4.446
257004.000			22.229			-4.446
257104.000			22.229			-4.446
257205.000			22.228			-4.446
257303.000			22.229			-4.446
257405.000			22.228			-4.446
257504.000			22.228			-4.446
257604.000			22.228			-4.446
257705.000			22.227			-4.445
257804.000			22.226			-4.445
257904.000			22.226			-4.445
258004.000			22.227			-4.445
258104.000			22.227			-4.445
258203.000			22.227			-4.445
258305.000			22.227			-4.445
258404.000			22.226			-4.445
258504.000			22.225			-4.445
258605.000			22.225			-4.445
258704.000			22.226			-4.445
258804.000			22.226			-4.445
258904.000			22.225			-4.445
259004.000			22.225			-4.445
259103.000			22.226			-4.445
259205.000			22.225			-4.445
259304.000			22.225			-4.445
259404.000			22.225			-4.445
259505.000			22.224			-4.445
259604.000			22.224			-4.445
259704.000			22.224			-4.445
259804.000			22.224			-4.445
259904.000			22.224			-4.445
260003.000			22.224			-4.445
260105.000			22.224			-4.445
260204.000			22.222			-4.444
260304.000			22.222			-4.444
260405.000			22.222			-4.444
260504.000			22.223			-4.445
260605.000			22.222			-4.444
260703.000			22.223			-4.445
260804.000			22.222			-4.444
260905.000			22.222			-4.444
261004.000			22.223			-4.445
261104.000			22.222			-4.444
261205.000			22.222			-4.444
261304.000			22.221			-4.444
261403.000			22.220			-4.444
261505.000			22.222			-4.444
261604.000			22.221			-4.444
261704.000			22.220			-4.444
261805.000			22.219			-4.444
261904.000			22.220			-4.444
262004.000			22.220			-4.444
262105.000			22.219			-4.444
262204.000			22.220			-4.444
262303.000			22.220			-4.444
262405.000			22.220			-4.444
262504.000			22.220			-4.444
262604.000			22.220			-4.444
262705.000			22.220			-4.444
262804.000			22.221			-4.444
262904.000			22.221			-4.444
263004.000			22.220			-4.444
263104.000			22.220			-4.444
263204.000			22.219			-4.444
263305.000			22.218			-4.444
263404.000			22.218			-4.444
263504.000			22.218			-4.444
263605.000			22.218			-4.444
263704.000			22.217			-4.443
263805.000			22.217			-4.443
263903.000			22.218			-4.444
264004.000			22.218			-4.444
264105.000			22.218			-4.444
264204.000			22.218			-4.444
264304.000			22.216			-4.443
264405.000			22.216			-4.443
264504.000			22.217			-4.443
264603.000			22.218			-4.444
264705.000			22.218			-4.444
264803.000			22.217			-4.443
264904.000			22.216			-4.443
265005.000			22.216			-4.443
265104.000			22.216			-4.443
265204.000			22.215			-4.443
265305.000			22.214			-4.443
265404.000			22.214			-4.443
265503.000			22.214			-4.443
265605.000			22.214			-4.443
265704.000			22.214			-4.443
265804.000			22.214			-4.443
265905.000			22.213			-4.443
266004.000			22.213			-4.443
266104.000			22.213			-4.443
266205.000			22.213			-4.443
266304.000			22.214			-4.443
266403.000			22.212			-4.442
266505.000			22.213			-4.443
266604.000			22.213			-4.443
266704.000			22.212			-4.442
266805.000			22.212			-4.442
266904.000			22.213			-4.443
267005.000			22.213			-4.443
267103.000			22.212			-4.442
267204.000			22.212			-4.442
267304.000			22.212			-4.442
267404.000			22.212			-4.442
267504.000			22.211			-4.442
267605.000			22.211			-4.442
267704.000			22.212			-4.442
267804.000			22.211			-4.442
267905.000			22.210			-4.442
268003.000			22.210			-4.442
268104.000			22.210			-4.442
268205.000			22.209			-4.442
268304.000			22.210			-4.442
268404.000			22.210			-4.442
268505.000			22.210			-4.442
268604.000			22.210			-4.442
268703.000			22.210			-4.442
268805.000			22.210			-4.442
268903.000			22.209			-4.442
269004.000			22.209			-4.442
269105.000			22.208			-4.442
269204.000			22.208			-4.442
269304.000			22.209			-4.442
269405.000			22.208			-4.442
269504.000			22.208			-4.442
269603.000			22.208			-4.442
269705.000			22.208			-4.442
269803.000			22.208			-4.442
269904.000			22.208			-4.442
270005.000			22.208			-4.442
270104.000			22.207			-4.441
270205.000			22.207			-4.441
270304.000			22.208			-4.442
270404.000			22.208			-4.442
270504.000			22.207			-4.441
270604.000			22.208			-4.442
270704.000			22.208			-4.442
270805.000			22.207			-4.441
270904.000			22.207			-4.441
271004.000			22.206			-4.441
271105.000			22.206			-4.441
271204.000			22.206			-4.441
271304.000			22.206			-4.441
271404.000			22.206			-4.441
271504.000			22.206			-4.441
271604.000			22.205			-4.441
271705.000			22.205			-4.441
271804.000			22.205			-4.441
271904.000			22.205			-4.441
272005.000			22.204			-4.441
272103.000			22.204			-4.441
272204.000			22.206			-4.441
272305.000			22.205			-4.441
272404.000			22.205			-4.441
272504.000			22.205			-4.441
272605.000			22.204			-4.441
272704.000			22.205			-4.441
272804.000			22.204			-4.441
272905.000			22.204			-4.441
273003.000			22.204			-4.441
273104.000			22.204			-4.441
273205.000			22.204			-4.441
273304.000			22.203			-4.441
273405.000			22.203			-4.441
273504.000			22.203			-4.441
273604.000			22.203			-4.441
273704.000			22.203			-4.441
273804.000			22.203			-4.441
273904.000			22.203			-4.441
274005.000			22.202			-4.440
274104.000			22.203			-4.441
274204.000			22.203			-4.441
274305.000			22.202			-4.440
274404.000			22.202			-4.440
274504.000			22.202			-4.440
274604.000			22.202			-4.440
274704.000			22.202			-4.440
274804.000			22.201			-4.440
274905.000			22.200			-4.440
275004.000			22.200			-4.440
275104.000			22.201			-4.440
275205.000			22.201			-4.440
275303.000			22.200			-4.440
275404.000			22.200			-4.440
275505.000			22.201			-4.440
275604.000			22.200			-4.440
275704.000			22.200			-4.440
275805.000			22.200			-4.440
275904.000			22.200			-4.440
276004.000			22.199			-4.440
276105.000			22.199			-4.440
276203.000			22.200			-4.440
276304.000			22.199			-4.440
276405.000			22.198			-4.440
276504.000			22.197			-4.439
276605.000			22.199			-4.440
276704.000			22.199			-4.440
276804.000			22.198			-4.440
276905.000			22.198			-4.440
277004.000			22.197			-4.439
277103.000			22.197			-4.439
277205.000			22.197			-4.439
277304.000			22.198			-4.440
277404.000			22.197			-4.439
277505.000			22.197			-4.439
277604.000			22.197			-4.439
277704.000			22.196			-4.439
277805.000			22.196			-4.439
277904.000			22.196			-4.439
278003.000			22.196			-4.439
278105.000			22.196			-4.439
278204.000			22.196			-4.439
278304.000			22.196			-4.439
278405.000			22.194			-4.439
278504.000			22.194			-4.439
278604.000			22.195			-4.439
278705.000			22.195			-4.439
278804.000			22.194			-4.439
278903.000			22.194			-4.439
279005.000			22.195			-4.439
279104.000			22.195			-4.439
279204.000			22.195			-4.439
279305.000			22.195			-4.439
279404.000			22.195			-4.439
279504.000			22.193			-4.439
279605.000			22.193			-4.439
279704.000			22.193			-4.439
279803.000			22.193			-4.439
279904.000			22.192			-4.438
280003.000			22.192			-4.438
280105.000			22.192			-4.438
280204.000			22.191			-4.438
280304.000			22.192			-4.438
280405.000			22.192			-4.438
280504.000			22.192			-4.438
280604.000			22.192			-4.438
280704.000			22.190			-4.438
280804.000			22.190			-4.438
280904.000			22.190			-4.438
281005.000			22.191			-4.438
281104.000			22.191			-4.438
281204.000			22.191			-4.438
281305.000			22.190			-4.438
281404.000			22.190			-4.438
281504.000			22.189			-4.438
281604.000			22.189			-4.438
281704.000			22.190			-4.438
281804.000			22.190			-4.438
281905.000			22.189			-4.438
282004.000			22.190			-4.438
282104.000			22.189			-4.438
282205.000			22.189			-4.438
282304.000			22.189			-4.438
282404.000			22.189			-4.438
282504.000			22.189			-4.438
282604.000			22.189			-4.438
282704.000			22.188			-4.438
282805.000			22.188			-4.438
282904.000			22.188			-4.438
283005.000			22.187			-4.437
283104.000			22.186			-4.437
283204.000			22.188			-4.438
283305.000			22.188			-4.438
283403.000			22.187			-4.437
283504.000			22.187			-4.437
283605.000			22.186			-4.437
283704.000			22.186			-4.437
283804.000			22.185			-4.437
283905.000			22.186			-4.437
284004.000			22.187			-4.437
284104.000			22.186			-4.437
284205.000			22.186			-4.437
284303.000			22.186			-4.437
284404.000			22.187			-4.437
284505.000			22.185			-4.437
284604.000			22.185			-4.437
284704.000			22.185			-4.437
284805.000			22.184			-4.437
284904.000			22.184			-4.437
285004.000			22.184			-4.437
285105.000			22.185			-4.437
285203.000			22.185			-4.437
285304.000			22.184			-4.437
285405.000			22.184			-4.437
285504.000			22.184			-4.437
285604.000			22.184			-4.437
285705.000			22.183			-4.437
285804.000			22.183			-4.437
285904.000			22.184			-4.437
286005.000			22.183			-4.437
286103.000			22.183			-4.437
286205.000			22.183			-4.437
286304.000			22.183			-4.437
286404.000			22.182			-4.436
286505.000			22.182			-4.436
286604.000			22.181			-4.436
286704.000			22.182			-4.436
286805.000			22.182			-4.436
286904.000			22.183			-4.437
287003.000			22.182			-4.436
287105.000			22.182			-4.436
287204.000			22.181			-4.436
287304.000			22.181			-4.436
287405.000			22.181			-4.436
287504.000			22.181			-4.436
287604.000			22.180			-4.436
287704.000			22.180			-4.436
287804.000			22.180			-4.436
287903.000			22.180			-4.436
288005.000			22.181			-4.436
288104.000			22.180			-4.436
288204.000			22.180			-4.436
288305.000			22.180			-4.436
288404.000			22.180			-4.436
288504.000			22.179			-4.436
288604.000			22.179			-4.436
288704.000			22.181			-4.436
288803.000			22.180			-4.436
288905.000			22.179			-4.436
289004.000			22.178			-4.436
289104.000			22.178			-4.436
289205.000			22.178			-4.436
289304.000			22.178			-4.436
289405.000			22.178			-4.436
289504.000			22.179			-4.436
289604.000			22.179			-4.436
289704.000			22.178			-4.436
289804.000			22.177			-4.435
289904.000			22.177			-4.435
290005.000			22.178			-4.436
290104.000			22.178			-4.436
290204.000			22.178			-4.436
290305.000			22.177			-4.435
290404.000			22.177			-4.435
290504.000			22.178			-4.436
290604.000			22.177			-4.435
290704.000			22.177			-4.435
290804.000			22.177			-4.435
290905.000			22.177			-4.435
291004.000			22.176			-4.435
291104.000			22.175			-4.435
291205.000			22.175			-4.435
291303.000			22.175			-4.435
291404.000			22.175			-4.435
291504.000			22.174			-4.435
291604.000			22.175			-4.435
291704.000			22.175			-4.435
291805.000			22.174			-4.435
291904.000			22.173			-4.435
292004.000			22.174			-4.435
292105.000			22.174			-4.435
292203.000			22.174			-4.435
292304.000			22.174			-4.435
292405.000			22.174			-4.435
292504.000			22.174			-4.435
292605.000			22.174			-4.435
292704.000			22.174			-4.435
292804.000			22.173			-4.435
292905.000			22.172			-4.434
293004.000			22.173			-4.435
293103.000			22.173			-4.435
293205.000			22.173			-4.435
293304.000			22.173			-4.435
293404.000			22.173			-4.435
293505.000			22.173			-4.435
293604.000			22.173			-4.435
293704.000			22.172			-4.434
293805.000			22.173			-4.435
293904.000			22.173			-4.435
294003.000			22.172			-4.434
294105.000			22.172			-4.434
294204.000			22.172			-4.434
294304.000			22.172			-4.434
294405.000			22.172			-4.434
294504.000			22.171			-4.434
294604.000			22.172			-4.434
294704.000			22.172			-4.434
294804.000			22.171			-4.434
294903.000			22.171			-4.434
295005.000			22.171			-4.434
295104.000			22.171			-4.434
295204.000			22.171			-4.434
295305.000			22.170			-4.434
295404.000			22.172			-4.434
295504.000			22.172			-4.434
295604.000			22.172			-4.434
295704.000			22.171			-4.434
295803.000			22.170			-4.434
295904.000			22.170			-4.434
296004.000			22.171			-4.434
296105.000			22.170			-4.434
296204.000			22.170			-4.434
296304.000			22.170			-4.434
296405.000			22.170			-4.434
296503.000			22.169			-4.434
296604.000			22.168			-4.434
296705.000			22.169			-4.434
296804.000			22.168			-4.434
296904.000			22.168			-4.434
297005.000			22.168			-4.434
297104.000			22.169			-4.434
297204.000			22.168			-4.434
297305.000			22.167			-4.433
297403.000			22.168			-4.434
297504.000			22.168			-4.434
297604.000			22.166			-4.433
297704.000			22.166			-4.433
297804.000			22.165			-4.433
297905.000			22.167			-4.433
298004.000			22.166			-4.433
298104.000			22.167			-4.433
298205.000			22.166			-4.433
298304.000			22.165			-4.433
298404.000			22.165			-4.433
298504.000			22.166			-4.433
298604.000			22.165			-4.433
298704.000			22.165			-4.433
298805.000			22.165			-4.433
298904.000			22.165			-4.433
299005.000			22.165			-4.433
299104.000			22.165			-4.433
299204.000			22.165			-4.433
299305.000			22.164			-4.433
299403.000			22.164			-4.433
299504.000			22.165			-4.433
299605.000			22.165			-4.433
299704.000			22.164			-4.433
299804.000			22.164			-4.433
299905.000			22.163			-4.433
