# Acquired on 26/01/2024 14:37:27 
# SPIDER: Creep_-5mm_HM077x145x38AA-2
# CREEP MEASUREMENT

# time [ms]		force [N]		stiffness [N/mm]
0.000			24.198			-4.840
104.000			25.072			-5.014
205.000			25.295			-5.059
303.000			25.227			-5.045
404.000			25.160			-5.032
505.000			25.075			-5.015
604.000			25.041			-5.008
704.000			25.010			-5.002
803.000			24.982			-4.996
904.000			24.957			-4.991
1005.000			24.932			-4.986
1104.000			24.911			-4.982
1204.000			24.874			-4.975
1305.000			24.856			-4.971
1404.000			24.839			-4.968
1503.000			24.822			-4.964
1605.000			24.807			-4.961
1704.000			24.793			-4.959
1804.000			24.780			-4.956
1905.000			24.767			-4.953
2004.000			24.740			-4.948
2104.000			24.729			-4.946
2204.000			24.719			-4.944
2304.000			24.708			-4.942
2404.000			24.697			-4.939
2505.000			24.686			-4.937
2604.000			24.677			-4.935
2703.000			24.658			-4.932
2805.000			24.649			-4.930
2904.000			24.641			-4.928
3004.000			24.631			-4.926
3105.000			24.624			-4.925
3204.000			24.615			-4.923
3304.000			24.606			-4.921
3404.000			24.591			-4.918
3504.000			24.583			-4.917
3604.000			24.575			-4.915
3705.000			24.569			-4.914
3804.000			24.562			-4.912
3904.000			24.555			-4.911
4005.000			24.546			-4.909
4103.000			24.534			-4.907
4205.000			24.529			-4.906
4304.000			24.522			-4.904
4404.000			24.515			-4.903
4505.000			24.510			-4.902
4603.000			24.505			-4.901
4704.000			24.499			-4.900
4805.000			24.493			-4.899
4904.000			24.481			-4.896
5004.000			24.476			-4.895
5105.000			24.471			-4.894
5204.000			24.465			-4.893
5303.000			24.461			-4.892
5405.000			24.455			-4.891
5504.000			24.450			-4.890
5604.000			24.441			-4.888
5705.000			24.437			-4.887
5803.000			24.432			-4.886
5904.000			24.426			-4.885
6005.000			24.422			-4.884
6104.000			24.417			-4.883
6204.000			24.412			-4.882
6305.000			24.404			-4.881
6404.000			24.401			-4.880
6503.000			24.397			-4.879
6605.000			24.391			-4.878
6704.000			24.387			-4.877
6804.000			24.384			-4.877
6905.000			24.380			-4.876
7003.000			24.371			-4.874
7104.000			24.367			-4.873
7205.000			24.364			-4.873
7304.000			24.359			-4.872
7405.000			24.355			-4.871
7504.000			24.352			-4.870
7604.000			24.348			-4.870
7704.000			24.345			-4.869
7804.000			24.338			-4.868
7904.000			24.333			-4.867
8005.000			24.329			-4.866
8104.000			24.327			-4.865
8204.000			24.323			-4.865
8305.000			24.319			-4.864
8403.000			24.317			-4.863
8504.000			24.308			-4.862
8605.000			24.305			-4.861
8704.000			24.303			-4.861
8804.000			24.300			-4.860
8904.000			24.297			-4.859
9004.000			24.294			-4.859
9104.000			24.290			-4.858
9205.000			24.284			-4.857
9304.000			24.281			-4.856
9404.000			24.277			-4.855
9505.000			24.274			-4.855
9603.000			24.271			-4.854
9704.000			24.269			-4.854
9805.000			24.266			-4.853
9904.000			24.260			-4.852
10004.000			24.257			-4.851
10105.000			24.254			-4.851
10204.000			24.251			-4.850
10303.000			24.248			-4.850
10405.000			24.246			-4.849
10504.000			24.243			-4.849
10605.000			24.240			-4.848
10704.000			24.235			-4.847
10803.000			24.232			-4.846
10905.000			24.230			-4.846
11004.000			24.227			-4.845
11104.000			24.224			-4.845
11205.000			24.221			-4.844
11304.000			24.218			-4.844
11404.000			24.213			-4.843
11504.000			24.212			-4.842
11604.000			24.208			-4.842
11704.000			24.206			-4.841
11805.000			24.204			-4.841
11904.000			24.202			-4.840
12004.000			24.198			-4.840
12105.000			24.193			-4.839
12203.000			24.190			-4.838
12304.000			24.188			-4.838
12405.000			24.187			-4.837
12504.000			24.185			-4.837
12604.000			24.182			-4.836
12705.000			24.180			-4.836
12804.000			24.178			-4.836
12903.000			24.174			-4.835
13005.000			24.171			-4.834
13104.000			24.168			-4.834
13204.000			24.166			-4.833
13305.000			24.164			-4.833
13403.000			24.162			-4.832
13504.000			24.159			-4.832
13605.000			24.155			-4.831
13704.000			24.153			-4.831
13805.000			24.150			-4.830
13904.000			24.148			-4.830
14004.000			24.147			-4.829
14104.000			24.144			-4.829
14204.000			24.142			-4.828
14304.000			24.138			-4.828
14405.000			24.135			-4.827
14504.000			24.133			-4.827
14604.000			24.132			-4.826
14705.000			24.129			-4.826
14803.000			24.127			-4.825
14904.000			24.126			-4.825
15005.000			24.121			-4.824
15104.000			24.120			-4.824
15204.000			24.118			-4.824
15304.000			24.115			-4.823
15404.000			24.113			-4.823
15504.000			24.112			-4.822
15605.000			24.110			-4.822
15704.000			24.108			-4.822
15804.000			24.104			-4.821
15905.000			24.102			-4.820
16003.000			24.100			-4.820
16104.000			24.098			-4.820
16205.000			24.097			-4.819
16304.000			24.095			-4.819
16404.000			24.094			-4.819
16505.000			24.090			-4.818
16604.000			24.088			-4.818
16703.000			24.086			-4.817
16805.000			24.083			-4.817
16904.000			24.082			-4.816
17005.000			24.081			-4.816
17104.000			24.080			-4.816
17204.000			24.075			-4.815
17305.000			24.074			-4.815
17403.000			24.073			-4.815
17504.000			24.071			-4.814
17605.000			24.069			-4.814
17704.000			24.067			-4.813
17804.000			24.065			-4.813
17904.000			24.061			-4.812
18004.000			24.058			-4.812
18104.000			24.058			-4.812
18205.000			24.057			-4.811
18304.000			24.055			-4.811
18404.000			24.053			-4.811
18505.000			24.051			-4.810
18603.000			24.049			-4.810
18704.000			24.047			-4.809
18805.000			24.045			-4.809
18904.000			24.045			-4.809
19004.000			24.043			-4.809
19105.000			24.041			-4.808
19204.000			24.039			-4.808
19303.000			24.038			-4.808
19405.000			24.034			-4.807
19504.000			24.031			-4.806
19604.000			24.031			-4.806
19705.000			24.029			-4.806
19804.000			24.028			-4.806
19904.000			24.027			-4.805
20003.000			24.025			-4.805
20104.000			24.022			-4.804
20205.000			24.020			-4.804
20304.000			24.019			-4.804
20404.000			24.017			-4.803
20504.000			24.015			-4.803
20604.000			24.014			-4.803
20704.000			24.013			-4.803
20805.000			24.012			-4.802
20904.000			24.008			-4.802
21004.000			24.006			-4.801
21105.000			24.005			-4.801
21203.000			24.004			-4.801
21304.000			24.003			-4.801
21405.000			24.002			-4.800
21504.000			23.999			-4.800
21604.000			23.996			-4.799
21705.000			23.996			-4.799
21804.000			23.995			-4.799
21903.000			23.993			-4.799
22005.000			23.991			-4.798
22104.000			23.989			-4.798
22204.000			23.989			-4.798
22305.000			23.985			-4.797
22404.000			23.985			-4.797
22504.000			23.983			-4.797
22604.000			23.982			-4.796
22704.000			23.981			-4.796
22804.000			23.979			-4.796
22905.000			23.978			-4.796
23004.000			23.975			-4.795
23104.000			23.974			-4.795
23205.000			23.973			-4.795
23303.000			23.971			-4.794
23405.000			23.970			-4.794
23504.000			23.968			-4.794
23604.000			23.968			-4.794
23705.000			23.966			-4.793
23804.000			23.963			-4.793
23904.000			23.962			-4.792
24004.000			23.960			-4.792
24104.000			23.959			-4.792
24204.000			23.958			-4.792
24305.000			23.957			-4.791
24404.000			23.956			-4.791
24503.000			23.953			-4.791
24605.000			23.951			-4.790
24704.000			23.951			-4.790
24804.000			23.949			-4.790
24905.000			23.947			-4.789
25004.000			23.946			-4.789
25104.000			23.945			-4.789
25204.000			23.944			-4.789
25304.000			23.942			-4.788
25404.000			23.941			-4.788
25505.000			23.940			-4.788
25604.000			23.939			-4.788
25704.000			23.937			-4.787
25805.000			23.937			-4.787
25903.000			23.935			-4.787
26004.000			23.932			-4.786
26105.000			23.930			-4.786
26204.000			23.929			-4.786
26304.000			23.929			-4.786
26404.000			23.928			-4.786
26504.000			23.926			-4.785
26604.000			23.926			-4.785
26704.000			23.923			-4.785
26803.000			23.922			-4.784
26905.000			23.921			-4.784
27004.000			23.920			-4.784
27104.000			23.918			-4.784
27205.000			23.917			-4.783
27303.000			23.917			-4.783
27404.000			23.914			-4.783
27505.000			23.913			-4.783
27604.000			23.912			-4.782
27704.000			23.911			-4.782
27805.000			23.909			-4.782
27904.000			23.908			-4.782
28003.000			23.906			-4.781
28105.000			23.905			-4.781
28204.000			23.903			-4.781
28304.000			23.902			-4.780
28405.000			23.901			-4.780
28504.000			23.900			-4.780
28604.000			23.900			-4.780
28704.000			23.898			-4.780
28804.000			23.897			-4.779
28904.000			23.896			-4.779
29005.000			23.894			-4.779
29104.000			23.894			-4.779
29204.000			23.893			-4.779
29305.000			23.892			-4.778
29403.000			23.890			-4.778
29504.000			23.890			-4.778
29605.000			23.887			-4.777
29704.000			23.885			-4.777
29805.000			23.884			-4.777
29904.000			23.883			-4.777
30004.000			23.882			-4.776
30104.000			23.880			-4.776
30204.000			23.880			-4.776
30303.000			23.878			-4.776
30405.000			23.877			-4.775
30504.000			23.875			-4.775
30604.000			23.875			-4.775
30705.000			23.873			-4.775
30803.000			23.872			-4.774
30904.000			23.870			-4.774
31005.000			23.869			-4.774
31104.000			23.867			-4.773
31204.000			23.867			-4.773
31305.000			23.866			-4.773
31404.000			23.866			-4.773
31503.000			23.865			-4.773
31605.000			23.864			-4.773
31704.000			23.863			-4.773
31804.000			23.862			-4.772
31905.000			23.861			-4.772
32004.000			23.860			-4.772
32104.000			23.857			-4.771
32204.000			23.856			-4.771
32304.000			23.856			-4.771
32404.000			23.855			-4.771
32505.000			23.854			-4.771
32604.000			23.852			-4.770
32704.000			23.851			-4.770
32805.000			23.851			-4.770
32903.000			23.851			-4.770
33005.000			23.850			-4.770
33104.000			23.847			-4.769
33204.000			23.846			-4.769
33305.000			23.845			-4.769
33404.000			23.844			-4.769
33504.000			23.844			-4.769
33604.000			23.842			-4.768
33704.000			23.840			-4.768
33804.000			23.839			-4.768
33905.000			23.837			-4.767
34004.000			23.837			-4.767
34104.000			23.836			-4.767
34205.000			23.835			-4.767
34303.000			23.835			-4.767
34404.000			23.835			-4.767
34505.000			23.833			-4.767
34604.000			23.832			-4.766
34704.000			23.830			-4.766
34804.000			23.828			-4.766
34904.000			23.827			-4.765
35003.000			23.827			-4.765
35105.000			23.827			-4.765
35204.000			23.825			-4.765
35304.000			23.823			-4.765
35405.000			23.822			-4.764
35503.000			23.821			-4.764
35604.000			23.820			-4.764
35705.000			23.820			-4.764
35804.000			23.819			-4.764
35904.000			23.818			-4.764
36004.000			23.818			-4.764
36104.000			23.815			-4.763
36204.000			23.814			-4.763
36304.000			23.814			-4.763
36404.000			23.814			-4.763
36505.000			23.811			-4.762
36604.000			23.810			-4.762
36704.000			23.810			-4.762
36805.000			23.809			-4.762
36903.000			23.808			-4.762
37004.000			23.807			-4.761
37105.000			23.806			-4.761
37204.000			23.806			-4.761
37304.000			23.805			-4.761
37405.000			23.803			-4.761
37504.000			23.802			-4.760
37603.000			23.800			-4.760
37705.000			23.799			-4.760
37804.000			23.798			-4.760
37904.000			23.797			-4.759
38005.000			23.797			-4.759
38104.000			23.796			-4.759
38204.000			23.795			-4.759
38304.000			23.795			-4.759
38404.000			23.794			-4.759
38504.000			23.793			-4.759
38605.000			23.792			-4.758
38704.000			23.790			-4.758
38804.000			23.789			-4.758
38905.000			23.789			-4.758
39003.000			23.788			-4.758
39104.000			23.787			-4.757
39205.000			23.786			-4.757
39304.000			23.785			-4.757
39405.000			23.783			-4.757
39504.000			23.782			-4.756
39604.000			23.782			-4.756
39704.000			23.781			-4.756
39804.000			23.780			-4.756
39904.000			23.780			-4.756
40005.000			23.779			-4.756
40104.000			23.777			-4.755
40204.000			23.777			-4.755
40305.000			23.776			-4.755
40403.000			23.774			-4.755
40504.000			23.775			-4.755
40605.000			23.773			-4.755
40704.000			23.772			-4.754
40804.000			23.771			-4.754
40905.000			23.770			-4.754
41004.000			23.770			-4.754
41103.000			23.769			-4.754
41205.000			23.767			-4.753
41304.000			23.766			-4.753
41404.000			23.767			-4.753
41505.000			23.766			-4.753
41604.000			23.764			-4.753
41704.000			23.763			-4.753
41804.000			23.763			-4.753
41904.000			23.762			-4.752
42004.000			23.761			-4.752
42105.000			23.760			-4.752
42204.000			23.758			-4.752
42303.000			23.758			-4.752
42405.000			23.758			-4.752
42504.000			23.758			-4.752
42605.000			23.757			-4.751
42704.000			23.755			-4.751
42804.000			23.754			-4.751
42905.000			23.753			-4.751
43003.000			23.752			-4.750
43104.000			23.750			-4.750
43205.000			23.749			-4.750
43304.000			23.750			-4.750
43404.000			23.748			-4.750
43505.000			23.747			-4.749
43604.000			23.747			-4.749
43703.000			23.746			-4.749
43805.000			23.745			-4.749
43904.000			23.745			-4.749
44004.000			23.743			-4.749
44105.000			23.742			-4.748
44204.000			23.741			-4.748
44304.000			23.741			-4.748
44404.000			23.741			-4.748
44504.000			23.740			-4.748
44604.000			23.740			-4.748
44705.000			23.739			-4.748
44804.000			23.738			-4.748
44904.000			23.736			-4.747
45005.000			23.735			-4.747
45103.000			23.735			-4.747
45204.000			23.733			-4.747
45305.000			23.732			-4.746
45404.000			23.732			-4.746
45504.000			23.731			-4.746
45604.000			23.730			-4.746
45704.000			23.729			-4.746
45804.000			23.730			-4.746
45904.000			23.729			-4.746
46004.000			23.728			-4.746
46105.000			23.726			-4.745
46204.000			23.726			-4.745
46304.000			23.725			-4.745
46405.000			23.725			-4.745
46503.000			23.724			-4.745
46604.000			23.723			-4.745
46705.000			23.721			-4.744
46804.000			23.721			-4.744
46904.000			23.721			-4.744
47005.000			23.718			-4.744
47104.000			23.718			-4.744
47203.000			23.717			-4.743
47305.000			23.716			-4.743
47404.000			23.716			-4.743
47504.000			23.716			-4.743
47605.000			23.715			-4.743
47703.000			23.714			-4.743
47804.000			23.712			-4.742
47905.000			23.712			-4.742
48004.000			23.711			-4.742
48104.000			23.711			-4.742
48205.000			23.710			-4.742
48304.000			23.710			-4.742
48403.000			23.708			-4.742
48505.000			23.708			-4.742
48604.000			23.707			-4.741
48704.000			23.706			-4.741
48805.000			23.705			-4.741
48904.000			23.704			-4.741
49005.000			23.705			-4.741
49103.000			23.704			-4.741
49204.000			23.703			-4.741
49305.000			23.702			-4.740
49404.000			23.701			-4.740
49504.000			23.699			-4.740
49605.000			23.700			-4.740
49704.000			23.698			-4.740
49803.000			23.698			-4.740
49905.000			23.696			-4.739
50004.000			23.695			-4.739
50104.000			23.695			-4.739
50205.000			23.697			-4.739
50304.000			23.696			-4.739
50404.000			23.693			-4.739
50504.000			23.692			-4.738
50604.000			23.692			-4.738
50704.000			23.691			-4.738
50805.000			23.691			-4.738
50904.000			23.690			-4.738
51004.000			23.689			-4.738
51105.000			23.689			-4.738
51203.000			23.688			-4.738
51304.000			23.687			-4.737
51405.000			23.686			-4.737
51504.000			23.686			-4.737
51604.000			23.685			-4.737
51705.000			23.685			-4.737
51804.000			23.684			-4.737
51903.000			23.683			-4.737
52005.000			23.683			-4.737
52104.000			23.682			-4.736
52205.000			23.681			-4.736
52304.000			23.680			-4.736
52404.000			23.679			-4.736
52505.000			23.679			-4.736
52603.000			23.679			-4.736
52704.000			23.677			-4.735
52805.000			23.677			-4.735
52904.000			23.675			-4.735
53004.000			23.673			-4.735
53105.000			23.673			-4.735
53204.000			23.672			-4.734
53303.000			23.674			-4.735
53405.000			23.673			-4.735
53504.000			23.670			-4.734
53604.000			23.670			-4.734
53705.000			23.668			-4.734
53804.000			23.669			-4.734
53904.000			23.669			-4.734
54004.000			23.667			-4.733
54104.000			23.666			-4.733
54204.000			23.667			-4.733
54305.000			23.665			-4.733
54404.000			23.664			-4.733
54504.000			23.664			-4.733
54605.000			23.664			-4.733
54703.000			23.664			-4.733
54804.000			23.664			-4.733
54905.000			23.663			-4.733
55004.000			23.662			-4.732
55104.000			23.661			-4.732
55204.000			23.661			-4.732
55304.000			23.659			-4.732
55404.000			23.658			-4.732
55504.000			23.658			-4.732
55604.000			23.658			-4.732
55705.000			23.656			-4.731
55804.000			23.655			-4.731
55904.000			23.655			-4.731
56005.000			23.654			-4.731
56103.000			23.654			-4.731
56204.000			23.653			-4.731
56305.000			23.652			-4.730
56404.000			23.651			-4.730
56504.000			23.650			-4.730
56604.000			23.650			-4.730
56704.000			23.649			-4.730
56803.000			23.648			-4.730
56905.000			23.648			-4.730
57004.000			23.648			-4.730
57104.000			23.648			-4.730
57205.000			23.646			-4.729
57304.000			23.645			-4.729
57404.000			23.644			-4.729
57504.000			23.644			-4.729
57604.000			23.643			-4.729
57704.000			23.644			-4.729
57805.000			23.643			-4.729
57904.000			23.642			-4.728
58004.000			23.640			-4.728
58105.000			23.639			-4.728
58204.000			23.639			-4.728
58304.000			23.639			-4.728
58405.000			23.639			-4.728
58504.000			23.639			-4.728
58605.000			23.637			-4.727
58704.000			23.637			-4.727
58804.000			23.636			-4.727
58904.000			23.635			-4.727
59004.000			23.634			-4.727
59104.000			23.634			-4.727
59205.000			23.634			-4.727
59304.000			23.633			-4.727
59404.000			23.632			-4.726
59505.000			23.631			-4.726
59603.000			23.630			-4.726
59704.000			23.629			-4.726
59805.000			23.629			-4.726
59904.000			23.629			-4.726
60004.000			23.629			-4.726
60105.000			23.627			-4.725
60204.000			23.626			-4.725
60303.000			23.626			-4.725
60405.000			23.625			-4.725
60504.000			23.624			-4.725
60604.000			23.624			-4.725
60705.000			23.624			-4.725
60803.000			23.624			-4.725
60904.000			23.622			-4.724
61005.000			23.622			-4.724
61104.000			23.622			-4.724
61204.000			23.621			-4.724
61305.000			23.620			-4.724
61404.000			23.620			-4.724
61503.000			23.619			-4.724
61605.000			23.618			-4.724
61704.000			23.617			-4.723
61805.000			23.618			-4.724
61904.000			23.617			-4.723
62004.000			23.617			-4.723
62105.000			23.616			-4.723
62203.000			23.616			-4.723
62304.000			23.614			-4.723
62405.000			23.614			-4.723
62504.000			23.614			-4.723
62604.000			23.611			-4.722
62705.000			23.610			-4.722
62804.000			23.611			-4.722
62903.000			23.611			-4.722
63005.000			23.610			-4.722
63104.000			23.609			-4.722
63204.000			23.607			-4.721
63305.000			23.607			-4.721
63403.000			23.607			-4.721
63504.000			23.606			-4.721
63605.000			23.607			-4.721
63704.000			23.606			-4.721
63804.000			23.605			-4.721
63905.000			23.605			-4.721
64004.000			23.604			-4.721
64103.000			23.602			-4.720
64205.000			23.603			-4.721
64304.000			23.603			-4.721
64404.000			23.601			-4.720
64505.000			23.600			-4.720
64604.000			23.601			-4.720
64704.000			23.600			-4.720
64803.000			23.600			-4.720
64904.000			23.598			-4.720
65005.000			23.598			-4.720
65104.000			23.597			-4.719
65204.000			23.597			-4.719
65305.000			23.596			-4.719
65404.000			23.596			-4.719
65503.000			23.596			-4.719
65605.000			23.596			-4.719
65704.000			23.595			-4.719
65804.000			23.594			-4.719
65905.000			23.593			-4.719
66004.000			23.592			-4.718
66104.000			23.591			-4.718
66204.000			23.591			-4.718
66304.000			23.591			-4.718
66404.000			23.589			-4.718
66505.000			23.587			-4.717
66604.000			23.587			-4.717
66704.000			23.588			-4.718
66805.000			23.588			-4.718
66903.000			23.587			-4.717
67004.000			23.586			-4.717
67105.000			23.586			-4.717
67204.000			23.586			-4.717
67304.000			23.585			-4.717
67405.000			23.584			-4.717
67504.000			23.583			-4.717
67603.000			23.583			-4.717
67705.000			23.583			-4.717
67804.000			23.583			-4.717
67904.000			23.582			-4.716
68005.000			23.581			-4.716
68104.000			23.580			-4.716
68205.000			23.579			-4.716
68304.000			23.578			-4.716
68404.000			23.579			-4.716
68504.000			23.579			-4.716
68604.000			23.578			-4.716
68704.000			23.578			-4.716
68805.000			23.577			-4.715
68904.000			23.576			-4.715
69004.000			23.574			-4.715
69105.000			23.574			-4.715
69203.000			23.575			-4.715
69304.000			23.575			-4.715
69405.000			23.575			-4.715
69504.000			23.574			-4.715
69604.000			23.573			-4.715
69705.000			23.571			-4.714
69804.000			23.571			-4.714
69903.000			23.571			-4.714
70005.000			23.570			-4.714
70104.000			23.570			-4.714
70204.000			23.570			-4.714
70305.000			23.569			-4.714
70404.000			23.568			-4.714
70504.000			23.568			-4.714
70604.000			23.568			-4.714
70704.000			23.566			-4.713
70804.000			23.566			-4.713
70905.000			23.565			-4.713
71004.000			23.564			-4.713
71104.000			23.564			-4.713
71205.000			23.564			-4.713
71303.000			23.564			-4.713
71405.000			23.563			-4.713
71504.000			23.562			-4.712
71604.000			23.561			-4.712
71705.000			23.561			-4.712
71804.000			23.561			-4.712
71904.000			23.561			-4.712
72004.000			23.560			-4.712
72104.000			23.560			-4.712
72204.000			23.559			-4.712
72305.000			23.559			-4.712
72404.000			23.558			-4.712
72503.000			23.557			-4.711
72605.000			23.556			-4.711
72704.000			23.555			-4.711
72804.000			23.554			-4.711
72905.000			23.554			-4.711
73004.000			23.554			-4.711
73104.000			23.555			-4.711
73204.000			23.551			-4.710
73304.000			23.551			-4.710
73403.000			23.552			-4.710
73505.000			23.552			-4.710
73604.000			23.552			-4.710
73704.000			23.550			-4.710
73805.000			23.550			-4.710
73903.000			23.551			-4.710
74004.000			23.548			-4.710
74105.000			23.549			-4.710
74204.000			23.548			-4.710
74304.000			23.547			-4.709
74404.000			23.547			-4.709
74504.000			23.547			-4.709
74604.000			23.546			-4.709
74704.000			23.546			-4.709
74803.000			23.545			-4.709
74905.000			23.544			-4.709
75004.000			23.544			-4.709
75104.000			23.544			-4.709
75205.000			23.544			-4.709
75303.000			23.543			-4.709
75404.000			23.543			-4.709
75505.000			23.542			-4.708
75604.000			23.541			-4.708
75704.000			23.540			-4.708
75805.000			23.540			-4.708
75904.000			23.540			-4.708
76003.000			23.541			-4.708
76105.000			23.538			-4.708
76204.000			23.537			-4.707
76304.000			23.537			-4.707
76405.000			23.538			-4.708
76504.000			23.538			-4.708
76604.000			23.537			-4.707
76704.000			23.536			-4.707
76804.000			23.536			-4.707
76903.000			23.535			-4.707
77005.000			23.534			-4.707
77104.000			23.534			-4.707
77204.000			23.534			-4.707
77305.000			23.532			-4.706
77403.000			23.532			-4.706
77504.000			23.531			-4.706
77605.000			23.530			-4.706
77704.000			23.530			-4.706
77805.000			23.529			-4.706
77904.000			23.529			-4.706
78004.000			23.528			-4.706
78104.000			23.530			-4.706
78204.000			23.529			-4.706
78303.000			23.526			-4.705
78405.000			23.526			-4.705
78504.000			23.527			-4.705
78604.000			23.526			-4.705
78705.000			23.526			-4.705
78804.000			23.525			-4.705
78904.000			23.525			-4.705
79004.000			23.524			-4.705
79104.000			23.523			-4.705
79204.000			23.522			-4.704
79305.000			23.522			-4.704
79404.000			23.522			-4.704
79504.000			23.522			-4.704
79605.000			23.522			-4.704
79703.000			23.520			-4.704
79804.000			23.519			-4.704
79905.000			23.519			-4.704
80004.000			23.519			-4.704
80104.000			23.518			-4.704
80205.000			23.518			-4.704
80304.000			23.518			-4.704
80403.000			23.517			-4.703
80505.000			23.516			-4.703
80604.000			23.516			-4.703
80704.000			23.515			-4.703
80805.000			23.515			-4.703
80903.000			23.515			-4.703
81005.000			23.515			-4.703
81104.000			23.514			-4.703
81204.000			23.512			-4.702
81305.000			23.512			-4.702
81404.000			23.512			-4.702
81504.000			23.512			-4.702
81604.000			23.511			-4.702
81704.000			23.510			-4.702
81804.000			23.510			-4.702
81905.000			23.511			-4.702
82004.000			23.509			-4.702
82104.000			23.509			-4.702
82205.000			23.509			-4.702
82303.000			23.508			-4.702
82404.000			23.507			-4.701
82505.000			23.507			-4.701
82604.000			23.508			-4.702
82704.000			23.506			-4.701
82805.000			23.506			-4.701
82904.000			23.507			-4.701
83003.000			23.505			-4.701
83105.000			23.505			-4.701
83204.000			23.506			-4.701
83304.000			23.504			-4.701
83405.000			23.504			-4.701
83504.000			23.502			-4.700
83604.000			23.502			-4.700
83704.000			23.502			-4.700
83804.000			23.502			-4.700
83904.000			23.501			-4.700
84004.000			23.499			-4.700
84104.000			23.500			-4.700
84205.000			23.499			-4.700
84304.000			23.498			-4.700
84403.000			23.498			-4.700
84505.000			23.498			-4.700
84604.000			23.497			-4.699
84704.000			23.496			-4.699
84805.000			23.495			-4.699
84904.000			23.495			-4.699
85004.000			23.496			-4.699
85104.000			23.495			-4.699
85204.000			23.494			-4.699
85304.000			23.493			-4.699
85405.000			23.493			-4.699
85504.000			23.493			-4.699
85604.000			23.491			-4.698
85705.000			23.491			-4.698
85803.000			23.491			-4.698
85904.000			23.491			-4.698
86005.000			23.490			-4.698
86104.000			23.489			-4.698
86204.000			23.490			-4.698
86305.000			23.489			-4.698
86404.000			23.488			-4.698
86503.000			23.488			-4.698
86605.000			23.488			-4.698
86704.000			23.487			-4.697
86804.000			23.486			-4.697
86905.000			23.486			-4.697
87004.000			23.486			-4.697
87104.000			23.485			-4.697
87204.000			23.484			-4.697
87304.000			23.485			-4.697
87404.000			23.484			-4.697
87504.000			23.483			-4.697
87604.000			23.482			-4.696
87705.000			23.483			-4.697
87804.000			23.482			-4.696
87904.000			23.481			-4.696
88005.000			23.482			-4.696
88103.000			23.482			-4.696
88204.000			23.480			-4.696
88305.000			23.480			-4.696
88404.000			23.480			-4.696
88504.000			23.480			-4.696
88605.000			23.479			-4.696
88704.000			23.479			-4.696
88803.000			23.477			-4.695
88905.000			23.477			-4.695
89004.000			23.476			-4.695
89104.000			23.476			-4.695
89205.000			23.476			-4.695
89304.000			23.475			-4.695
89404.000			23.474			-4.695
89504.000			23.474			-4.695
89604.000			23.474			-4.695
89703.000			23.473			-4.695
89805.000			23.473			-4.695
89904.000			23.472			-4.694
90004.000			23.472			-4.694
90105.000			23.472			-4.694
90204.000			23.472			-4.694
90304.000			23.472			-4.694
90403.000			23.471			-4.694
90504.000			23.469			-4.694
90605.000			23.470			-4.694
90704.000			23.470			-4.694
90804.000			23.469			-4.694
90905.000			23.468			-4.694
91004.000			23.467			-4.693
91103.000			23.469			-4.694
91205.000			23.468			-4.694
91304.000			23.467			-4.693
91404.000			23.467			-4.693
91505.000			23.467			-4.693
91604.000			23.466			-4.693
91704.000			23.465			-4.693
91804.000			23.464			-4.693
91904.000			23.464			-4.693
92004.000			23.464			-4.693
92105.000			23.463			-4.693
92204.000			23.462			-4.692
92304.000			23.463			-4.693
92405.000			23.463			-4.693
92503.000			23.462			-4.692
92604.000			23.461			-4.692
92705.000			23.462			-4.692
92804.000			23.461			-4.692
92904.000			23.461			-4.692
93005.000			23.460			-4.692
93104.000			23.460			-4.692
93203.000			23.459			-4.692
93305.000			23.459			-4.692
93404.000			23.459			-4.692
93504.000			23.458			-4.692
93605.000			23.458			-4.692
93704.000			23.457			-4.691
93805.000			23.457			-4.691
93903.000			23.457			-4.691
94004.000			23.456			-4.691
94105.000			23.455			-4.691
94204.000			23.456			-4.691
94304.000			23.454			-4.691
94405.000			23.454			-4.691
94504.000			23.454			-4.691
94603.000			23.453			-4.691
94705.000			23.453			-4.691
94804.000			23.453			-4.691
94904.000			23.452			-4.690
95005.000			23.452			-4.690
95104.000			23.450			-4.690
95204.000			23.451			-4.690
95304.000			23.451			-4.690
95404.000			23.451			-4.690
95504.000			23.450			-4.690
95605.000			23.450			-4.690
95704.000			23.449			-4.690
95804.000			23.448			-4.690
95905.000			23.448			-4.690
96003.000			23.448			-4.690
96104.000			23.448			-4.690
96205.000			23.447			-4.689
96304.000			23.446			-4.689
96404.000			23.446			-4.689
96505.000			23.445			-4.689
96604.000			23.445			-4.689
96703.000			23.444			-4.689
96805.000			23.444			-4.689
96904.000			23.443			-4.689
97005.000			23.444			-4.689
97104.000			23.444			-4.689
97204.000			23.443			-4.689
97305.000			23.443			-4.689
97403.000			23.444			-4.689
97504.000			23.442			-4.688
97605.000			23.441			-4.688
97704.000			23.441			-4.688
97804.000			23.442			-4.688
97905.000			23.440			-4.688
98004.000			23.440			-4.688
98103.000			23.440			-4.688
98205.000			23.440			-4.688
98304.000			23.439			-4.688
98404.000			23.439			-4.688
98505.000			23.438			-4.688
98604.000			23.437			-4.687
98704.000			23.438			-4.688
98804.000			23.437			-4.687
98904.000			23.437			-4.687
99004.000			23.437			-4.687
99105.000			23.436			-4.687
99204.000			23.436			-4.687
99304.000			23.436			-4.687
99405.000			23.435			-4.687
99503.000			23.435			-4.687
99604.000			23.433			-4.687
99705.000			23.433			-4.687
99804.000			23.433			-4.687
99904.000			23.434			-4.687
100004.000			23.434			-4.687
100104.000			23.431			-4.686
100204.000			23.432			-4.686
100304.000			23.431			-4.686
100404.000			23.431			-4.686
100505.000			23.431			-4.686
100604.000			23.430			-4.686
100704.000			23.430			-4.686
100805.000			23.429			-4.686
100903.000			23.429			-4.686
101004.000			23.429			-4.686
101105.000			23.429			-4.686
101204.000			23.429			-4.686
101304.000			23.429			-4.686
101405.000			23.428			-4.686
101504.000			23.426			-4.685
101603.000			23.426			-4.685
101705.000			23.427			-4.685
101804.000			23.426			-4.685
101904.000			23.426			-4.685
102005.000			23.426			-4.685
102104.000			23.425			-4.685
102204.000			23.425			-4.685
102304.000			23.424			-4.685
102404.000			23.424			-4.685
102504.000			23.423			-4.685
102605.000			23.422			-4.684
102704.000			23.423			-4.685
102804.000			23.422			-4.684
102905.000			23.421			-4.684
103003.000			23.420			-4.684
103104.000			23.420			-4.684
103205.000			23.420			-4.684
103304.000			23.420			-4.684
103405.000			23.419			-4.684
103504.000			23.419			-4.684
103604.000			23.418			-4.684
103704.000			23.418			-4.684
103804.000			23.418			-4.684
103904.000			23.417			-4.683
104005.000			23.417			-4.683
104104.000			23.416			-4.683
104204.000			23.416			-4.683
104305.000			23.415			-4.683
104403.000			23.417			-4.683
104504.000			23.415			-4.683
104605.000			23.414			-4.683
104704.000			23.414			-4.683
104804.000			23.414			-4.683
104905.000			23.413			-4.683
105004.000			23.413			-4.683
105103.000			23.412			-4.682
105205.000			23.412			-4.682
105304.000			23.411			-4.682
105404.000			23.410			-4.682
105505.000			23.411			-4.682
105604.000			23.411			-4.682
105704.000			23.410			-4.682
105804.000			23.410			-4.682
105904.000			23.409			-4.682
106004.000			23.408			-4.682
106105.000			23.409			-4.682
106204.000			23.409			-4.682
106304.000			23.407			-4.681
106405.000			23.406			-4.681
106503.000			23.406			-4.681
106605.000			23.406			-4.681
106704.000			23.406			-4.681
106804.000			23.406			-4.681
106905.000			23.406			-4.681
107004.000			23.406			-4.681
107104.000			23.405			-4.681
107204.000			23.403			-4.681
107304.000			23.404			-4.681
107404.000			23.403			-4.681
107505.000			23.403			-4.681
107604.000			23.403			-4.681
107704.000			23.402			-4.680
107805.000			23.402			-4.680
107903.000			23.402			-4.680
108004.000			23.402			-4.680
108105.000			23.401			-4.680
108204.000			23.401			-4.680
108304.000			23.401			-4.680
108405.000			23.400			-4.680
108504.000			23.399			-4.680
108603.000			23.400			-4.680
108705.000			23.399			-4.680
108803.000			23.399			-4.680
108904.000			23.398			-4.680
109005.000			23.398			-4.680
109104.000			23.397			-4.679
109204.000			23.397			-4.679
109305.000			23.396			-4.679
109404.000			23.396			-4.679
109503.000			23.396			-4.679
109605.000			23.397			-4.679
109704.000			23.396			-4.679
109805.000			23.394			-4.679
109904.000			23.395			-4.679
110004.000			23.395			-4.679
110105.000			23.395			-4.679
110203.000			23.394			-4.679
110304.000			23.392			-4.678
110405.000			23.393			-4.679
110504.000			23.393			-4.679
110604.000			23.392			-4.678
110705.000			23.392			-4.678
110804.000			23.391			-4.678
110903.000			23.392			-4.678
111005.000			23.390			-4.678
111104.000			23.389			-4.678
111204.000			23.388			-4.678
111305.000			23.389			-4.678
111404.000			23.389			-4.678
111504.000			23.389			-4.678
111604.000			23.388			-4.678
111704.000			23.387			-4.677
111804.000			23.387			-4.677
111905.000			23.387			-4.677
112004.000			23.387			-4.677
112104.000			23.387			-4.677
112205.000			23.387			-4.677
112303.000			23.387			-4.677
112404.000			23.387			-4.677
112505.000			23.386			-4.677
112604.000			23.384			-4.677
112704.000			23.384			-4.677
112804.000			23.384			-4.677
112904.000			23.383			-4.677
113004.000			23.383			-4.677
113104.000			23.383			-4.677
113203.000			23.383			-4.677
113305.000			23.383			-4.677
113404.000			23.382			-4.676
113504.000			23.381			-4.676
113605.000			23.380			-4.676
113704.000			23.381			-4.676
113804.000			23.381			-4.676
113904.000			23.379			-4.676
114004.000			23.379			-4.676
114104.000			23.379			-4.676
114205.000			23.379			-4.676
114304.000			23.378			-4.676
114404.000			23.378			-4.676
114505.000			23.378			-4.676
114603.000			23.378			-4.676
114704.000			23.377			-4.675
114805.000			23.377			-4.675
114904.000			23.377			-4.675
115004.000			23.377			-4.675
115105.000			23.376			-4.675
115204.000			23.375			-4.675
115303.000			23.376			-4.675
115405.000			23.374			-4.675
115504.000			23.374			-4.675
115604.000			23.373			-4.675
115705.000			23.375			-4.675
115804.000			23.374			-4.675
115904.000			23.374			-4.675
116003.000			23.374			-4.675
116104.000			23.372			-4.674
116205.000			23.371			-4.674
116304.000			23.371			-4.674
116404.000			23.370			-4.674
116505.000			23.370			-4.674
116604.000			23.370			-4.674
116704.000			23.370			-4.674
116805.000			23.370			-4.674
116903.000			23.369			-4.674
117004.000			23.369			-4.674
117105.000			23.369			-4.674
117204.000			23.368			-4.674
117304.000			23.368			-4.674
117405.000			23.367			-4.673
117504.000			23.368			-4.674
117603.000			23.368			-4.674
117705.000			23.367			-4.673
117804.000			23.366			-4.673
117904.000			23.366			-4.673
118005.000			23.367			-4.673
118104.000			23.366			-4.673
118204.000			23.366			-4.673
118304.000			23.365			-4.673
118404.000			23.364			-4.673
118504.000			23.364			-4.673
118605.000			23.364			-4.673
118704.000			23.364			-4.673
118804.000			23.363			-4.673
118905.000			23.362			-4.672
119004.000			23.363			-4.673
119104.000			23.362			-4.672
119203.000			23.362			-4.672
119304.000			23.362			-4.672
119405.000			23.362			-4.672
119504.000			23.362			-4.672
119604.000			23.361			-4.672
119705.000			23.359			-4.672
119804.000			23.358			-4.672
119903.000			23.359			-4.672
120005.000			23.359			-4.672
120104.000			23.358			-4.672
120204.000			23.358			-4.672
120305.000			23.358			-4.672
120404.000			23.358			-4.672
120504.000			23.357			-4.671
120604.000			23.357			-4.671
120704.000			23.357			-4.671
120804.000			23.357			-4.671
120905.000			23.356			-4.671
121004.000			23.356			-4.671
121104.000			23.356			-4.671
121205.000			23.356			-4.671
121303.000			23.356			-4.671
121404.000			23.356			-4.671
121505.000			23.354			-4.671
121604.000			23.354			-4.671
121704.000			23.353			-4.671
121805.000			23.354			-4.671
121904.000			23.354			-4.671
122003.000			23.354			-4.671
122105.000			23.353			-4.671
122204.000			23.354			-4.671
122304.000			23.354			-4.671
122405.000			23.353			-4.671
122504.000			23.352			-4.670
122605.000			23.352			-4.670
122703.000			23.352			-4.670
122804.000			23.351			-4.670
122905.000			23.351			-4.670
123004.000			23.350			-4.670
123104.000			23.349			-4.670
123205.000			23.349			-4.670
123304.000			23.349			-4.670
123403.000			23.348			-4.670
123505.000			23.348			-4.670
123604.000			23.348			-4.670
123704.000			23.348			-4.670
123805.000			23.347			-4.669
123904.000			23.347			-4.669
124004.000			23.346			-4.669
124104.000			23.347			-4.669
124204.000			23.346			-4.669
124304.000			23.345			-4.669
124405.000			23.346			-4.669
124504.000			23.345			-4.669
124604.000			23.345			-4.669
124705.000			23.345			-4.669
124803.000			23.343			-4.669
124904.000			23.342			-4.668
125004.000			23.342			-4.668
125104.000			23.342			-4.668
125204.000			23.342			-4.668
125305.000			23.341			-4.668
125404.000			23.342			-4.668
125503.000			23.340			-4.668
125605.000			23.340			-4.668
125704.000			23.340			-4.668
125805.000			23.340			-4.668
125904.000			23.341			-4.668
126004.000			23.341			-4.668
126105.000			23.339			-4.668
126204.000			23.339			-4.668
126304.000			23.338			-4.668
126404.000			23.337			-4.667
126504.000			23.337			-4.667
126604.000			23.338			-4.668
126705.000			23.338			-4.668
126804.000			23.337			-4.667
126904.000			23.337			-4.667
127005.000			23.337			-4.667
127103.000			23.337			-4.667
127204.000			23.335			-4.667
127305.000			23.336			-4.667
127404.000			23.335			-4.667
127504.000			23.335			-4.667
127605.000			23.336			-4.667
127704.000			23.334			-4.667
127803.000			23.334			-4.667
127905.000			23.333			-4.667
128004.000			23.333			-4.667
128104.000			23.333			-4.667
128205.000			23.333			-4.667
128304.000			23.332			-4.666
128404.000			23.332			-4.666
128504.000			23.331			-4.666
128604.000			23.330			-4.666
128704.000			23.330			-4.666
128804.000			23.330			-4.666
128904.000			23.330			-4.666
129005.000			23.331			-4.666
129104.000			23.330			-4.666
129203.000			23.329			-4.666
129305.000			23.329			-4.666
129404.000			23.329			-4.666
129504.000			23.329			-4.666
129605.000			23.329			-4.666
129704.000			23.328			-4.666
129804.000			23.328			-4.666
129904.000			23.328			-4.666
130004.000			23.328			-4.666
130104.000			23.327			-4.665
130205.000			23.326			-4.665
130304.000			23.326			-4.665
130404.000			23.326			-4.665
130505.000			23.326			-4.665
130603.000			23.324			-4.665
130704.000			23.324			-4.665
130805.000			23.324			-4.665
130904.000			23.325			-4.665
131004.000			23.324			-4.665
131105.000			23.323			-4.665
131204.000			23.323			-4.665
131303.000			23.322			-4.664
131405.000			23.323			-4.665
131503.000			23.323			-4.665
131604.000			23.322			-4.664
131705.000			23.321			-4.664
131804.000			23.322			-4.664
131904.000			23.321			-4.664
132004.000			23.321			-4.664
132104.000			23.319			-4.664
132204.000			23.319			-4.664
132304.000			23.320			-4.664
132404.000			23.319			-4.664
132505.000			23.319			-4.664
132604.000			23.319			-4.664
132704.000			23.319			-4.664
132805.000			23.318			-4.664
132904.000			23.318			-4.664
133004.000			23.318			-4.664
133104.000			23.317			-4.663
133204.000			23.317			-4.663
133304.000			23.317			-4.663
133405.000			23.315			-4.663
133504.000			23.316			-4.663
133604.000			23.316			-4.663
133705.000			23.316			-4.663
133803.000			23.315			-4.663
133904.000			23.315			-4.663
134005.000			23.315			-4.663
134104.000			23.315			-4.663
134204.000			23.314			-4.663
134305.000			23.313			-4.663
134404.000			23.313			-4.663
134504.000			23.313			-4.663
134605.000			23.314			-4.663
134703.000			23.313			-4.663
134804.000			23.313			-4.663
134905.000			23.312			-4.662
135004.000			23.311			-4.662
135104.000			23.310			-4.662
135204.000			23.310			-4.662
135304.000			23.310			-4.662
135404.000			23.310			-4.662
135504.000			23.310			-4.662
135603.000			23.311			-4.662
135705.000			23.310			-4.662
135804.000			23.310			-4.662
135904.000			23.311			-4.662
136005.000			23.309			-4.662
136104.000			23.309			-4.662
136204.000			23.309			-4.662
136304.000			23.310			-4.662
136404.000			23.308			-4.662
136504.000			23.308			-4.662
136605.000			23.308			-4.662
136704.000			23.309			-4.662
136804.000			23.307			-4.661
136905.000			23.307			-4.661
137004.000			23.307			-4.661
137104.000			23.307			-4.661
137204.000			23.307			-4.661
137304.000			23.307			-4.661
137404.000			23.307			-4.661
137505.000			23.306			-4.661
137604.000			23.306			-4.661
137704.000			23.306			-4.661
137805.000			23.306			-4.661
137903.000			23.306			-4.661
138004.000			23.305			-4.661
138105.000			23.306			-4.661
138204.000			23.306			-4.661
138304.000			23.306			-4.661
138404.000			23.305			-4.661
138504.000			23.305			-4.661
138605.000			23.305			-4.661
138704.000			23.304			-4.661
138803.000			23.304			-4.661
138905.000			23.303			-4.661
139004.000			23.303			-4.661
139104.000			23.303			-4.661
139205.000			23.304			-4.661
139304.000			23.305			-4.661
139404.000			23.302			-4.660
139505.000			23.302			-4.660
139604.000			23.302			-4.660
139703.000			23.301			-4.660
139805.000			23.302			-4.660
139904.000			23.302			-4.660
140004.000			23.301			-4.660
140105.000			23.300			-4.660
140204.000			23.299			-4.660
140304.000			23.299			-4.660
140404.000			23.299			-4.660
140504.000			23.300			-4.660
140603.000			23.300			-4.660
140705.000			23.299			-4.660
140804.000			23.299			-4.660
140904.000			23.298			-4.660
141005.000			23.298			-4.660
141104.000			23.297			-4.659
141204.000			23.298			-4.660
141304.000			23.297			-4.659
141404.000			23.297			-4.659
141503.000			23.297			-4.659
141605.000			23.295			-4.659
141704.000			23.295			-4.659
141805.000			23.295			-4.659
141904.000			23.294			-4.659
142004.000			23.295			-4.659
142105.000			23.294			-4.659
142203.000			23.294			-4.659
142304.000			23.294			-4.659
142405.000			23.294			-4.659
142504.000			23.293			-4.659
142604.000			23.293			-4.659
142705.000			23.293			-4.659
142804.000			23.292			-4.658
142904.000			23.292			-4.658
143005.000			23.291			-4.658
143103.000			23.290			-4.658
143204.000			23.291			-4.658
143305.000			23.291			-4.658
143404.000			23.290			-4.658
143504.000			23.289			-4.658
143605.000			23.290			-4.658
143704.000			23.290			-4.658
143804.000			23.289			-4.658
143905.000			23.289			-4.658
144003.000			23.289			-4.658
144104.000			23.288			-4.658
144205.000			23.287			-4.657
144304.000			23.288			-4.658
144404.000			23.287			-4.657
144505.000			23.288			-4.658
144604.000			23.287			-4.657
144704.000			23.286			-4.657
144805.000			23.285			-4.657
144903.000			23.285			-4.657
145005.000			23.284			-4.657
145104.000			23.285			-4.657
145204.000			23.285			-4.657
145305.000			23.284			-4.657
145404.000			23.284			-4.657
145504.000			23.284			-4.657
145605.000			23.283			-4.657
145704.000			23.284			-4.657
145803.000			23.284			-4.657
145905.000			23.282			-4.656
146004.000			23.282			-4.656
146104.000			23.281			-4.656
146205.000			23.281			-4.656
146304.000			23.281			-4.656
146404.000			23.280			-4.656
146505.000			23.281			-4.656
146604.000			23.281			-4.656
146703.000			23.280			-4.656
146805.000			23.280			-4.656
146904.000			23.280			-4.656
147004.000			23.280			-4.656
147105.000			23.279			-4.656
147204.000			23.279			-4.656
147304.000			23.279			-4.656
147405.000			23.278			-4.656
147504.000			23.278			-4.656
147603.000			23.278			-4.656
147705.000			23.278			-4.656
147804.000			23.278			-4.656
147904.000			23.278			-4.656
148005.000			23.278			-4.656
148104.000			23.278			-4.656
148205.000			23.277			-4.655
148304.000			23.276			-4.655
148404.000			23.276			-4.655
148504.000			23.276			-4.655
148604.000			23.275			-4.655
148704.000			23.275			-4.655
148805.000			23.275			-4.655
148904.000			23.275			-4.655
149004.000			23.273			-4.655
149105.000			23.274			-4.655
149204.000			23.275			-4.655
149304.000			23.274			-4.655
149404.000			23.273			-4.655
149504.000			23.273			-4.655
149604.000			23.272			-4.654
149705.000			23.271			-4.654
149804.000			23.271			-4.654
149904.000			23.271			-4.654
150005.000			23.270			-4.654
150104.000			23.270			-4.654
150204.000			23.269			-4.654
150304.000			23.270			-4.654
150404.000			23.270			-4.654
150504.000			23.269			-4.654
150605.000			23.269			-4.654
150704.000			23.268			-4.654
150804.000			23.267			-4.653
150905.000			23.268			-4.654
151004.000			23.268			-4.654
151104.000			23.267			-4.653
151203.000			23.266			-4.653
151304.000			23.266			-4.653
151405.000			23.266			-4.653
151504.000			23.266			-4.653
151604.000			23.265			-4.653
151705.000			23.264			-4.653
151804.000			23.264			-4.653
151904.000			23.265			-4.653
152005.000			23.264			-4.653
152103.000			23.264			-4.653
152204.000			23.264			-4.653
152305.000			23.263			-4.653
152404.000			23.262			-4.652
152504.000			23.262			-4.652
152605.000			23.262			-4.652
152704.000			23.261			-4.652
152803.000			23.262			-4.652
152905.000			23.261			-4.652
153003.000			23.261			-4.652
153104.000			23.261			-4.652
153205.000			23.261			-4.652
153304.000			23.260			-4.652
153404.000			23.259			-4.652
153505.000			23.259			-4.652
153604.000			23.258			-4.652
153703.000			23.258			-4.652
153805.000			23.258			-4.652
153904.000			23.258			-4.652
154004.000			23.258			-4.652
154105.000			23.257			-4.651
154204.000			23.257			-4.651
154304.000			23.257			-4.651
154404.000			23.258			-4.652
154504.000			23.258			-4.652
154604.000			23.257			-4.651
154704.000			23.256			-4.651
154804.000			23.256			-4.651
154905.000			23.255			-4.651
155004.000			23.255			-4.651
155104.000			23.256			-4.651
155205.000			23.256			-4.651
155304.000			23.255			-4.651
155404.000			23.254			-4.651
155504.000			23.253			-4.651
155604.000			23.253			-4.651
155704.000			23.253			-4.651
155805.000			23.253			-4.651
155904.000			23.253			-4.651
156004.000			23.252			-4.650
156105.000			23.251			-4.650
156204.000			23.252			-4.650
156304.000			23.252			-4.650
156404.000			23.251			-4.650
156504.000			23.251			-4.650
156604.000			23.252			-4.650
156705.000			23.251			-4.650
156804.000			23.251			-4.650
156904.000			23.251			-4.650
157005.000			23.251			-4.650
157103.000			23.251			-4.650
157204.000			23.251			-4.650
157304.000			23.250			-4.650
157404.000			23.249			-4.650
157504.000			23.250			-4.650
157604.000			23.249			-4.650
157704.000			23.249			-4.650
157805.000			23.248			-4.650
157904.000			23.248			-4.650
158003.000			23.247			-4.649
158105.000			23.246			-4.649
158203.000			23.246			-4.649
158304.000			23.246			-4.649
158405.000			23.246			-4.649
158504.000			23.246			-4.649
158604.000			23.246			-4.649
158705.000			23.246			-4.649
158804.000			23.246			-4.649
158903.000			23.245			-4.649
159005.000			23.245			-4.649
159104.000			23.245			-4.649
159204.000			23.245			-4.649
159305.000			23.245			-4.649
159404.000			23.244			-4.649
159504.000			23.243			-4.649
159605.000			23.244			-4.649
159704.000			23.242			-4.648
159803.000			23.244			-4.649
159905.000			23.243			-4.649
160004.000			23.242			-4.648
160104.000			23.242			-4.648
160205.000			23.242			-4.648
160304.000			23.242			-4.648
160404.000			23.242			-4.648
160505.000			23.242			-4.648
160604.000			23.242			-4.648
160703.000			23.242			-4.648
160805.000			23.242			-4.648
160904.000			23.240			-4.648
161005.000			23.240			-4.648
161104.000			23.241			-4.648
161204.000			23.240			-4.648
161305.000			23.239			-4.648
161403.000			23.239			-4.648
161504.000			23.239			-4.648
161604.000			23.239			-4.648
161704.000			23.238			-4.648
161804.000			23.238			-4.648
161905.000			23.237			-4.647
162004.000			23.237			-4.647
162104.000			23.237			-4.647
162205.000			23.237			-4.647
162303.000			23.237			-4.647
162404.000			23.237			-4.647
162505.000			23.237			-4.647
162604.000			23.235			-4.647
162704.000			23.236			-4.647
162805.000			23.236			-4.647
162904.000			23.237			-4.647
163004.000			23.237			-4.647
163105.000			23.235			-4.647
163203.000			23.234			-4.647
163304.000			23.234			-4.647
163405.000			23.234			-4.647
163504.000			23.233			-4.647
163604.000			23.232			-4.646
163705.000			23.232			-4.646
163804.000			23.233			-4.647
163903.000			23.234			-4.647
164005.000			23.232			-4.646
164104.000			23.232			-4.646
164205.000			23.231			-4.646
164304.000			23.231			-4.646
164404.000			23.230			-4.646
164505.000			23.230			-4.646
164604.000			23.230			-4.646
164704.000			23.231			-4.646
164804.000			23.230			-4.646
164904.000			23.230			-4.646
165004.000			23.230			-4.646
165105.000			23.229			-4.646
165204.000			23.230			-4.646
165304.000			23.229			-4.646
165405.000			23.229			-4.646
165504.000			23.228			-4.646
165604.000			23.228			-4.646
165704.000			23.228			-4.646
165804.000			23.228			-4.646
165904.000			23.227			-4.645
166005.000			23.227			-4.645
166104.000			23.228			-4.646
166204.000			23.226			-4.645
166305.000			23.226			-4.645
166404.000			23.225			-4.645
166504.000			23.225			-4.645
166604.000			23.226			-4.645
166704.000			23.226			-4.645
166804.000			23.225			-4.645
166905.000			23.226			-4.645
167004.000			23.224			-4.645
167104.000			23.223			-4.645
167205.000			23.223			-4.645
167303.000			23.223			-4.645
167405.000			23.223			-4.645
167503.000			23.223			-4.645
167604.000			23.221			-4.644
167705.000			23.222			-4.644
167804.000			23.222			-4.644
167904.000			23.222			-4.644
168005.000			23.222			-4.644
168104.000			23.222			-4.644
168203.000			23.222			-4.644
168305.000			23.222			-4.644
168404.000			23.222			-4.644
168504.000			23.221			-4.644
168605.000			23.221			-4.644
168704.000			23.221			-4.644
168804.000			23.220			-4.644
168905.000			23.221			-4.644
169004.000			23.221			-4.644
169103.000			23.218			-4.644
169205.000			23.217			-4.643
169304.000			23.217			-4.643
169404.000			23.218			-4.644
169505.000			23.218			-4.644
169604.000			23.218			-4.644
169704.000			23.218			-4.644
169805.000			23.217			-4.643
169904.000			23.217			-4.643
170003.000			23.216			-4.643
170105.000			23.216			-4.643
170204.000			23.215			-4.643
170304.000			23.215			-4.643
170405.000			23.215			-4.643
170504.000			23.216			-4.643
170605.000			23.214			-4.643
170703.000			23.215			-4.643
170804.000			23.215			-4.643
170904.000			23.216			-4.643
171004.000			23.215			-4.643
171104.000			23.214			-4.643
171205.000			23.213			-4.643
171304.000			23.213			-4.643
171404.000			23.214			-4.643
171505.000			23.213			-4.643
171603.000			23.213			-4.643
171704.000			23.213			-4.643
171805.000			23.213			-4.643
171904.000			23.212			-4.642
172004.000			23.211			-4.642
172105.000			23.211			-4.642
172204.000			23.211			-4.642
172303.000			23.210			-4.642
172405.000			23.210			-4.642
172504.000			23.210			-4.642
172604.000			23.210			-4.642
172705.000			23.210			-4.642
172804.000			23.209			-4.642
172904.000			23.209			-4.642
173005.000			23.209			-4.642
173104.000			23.209			-4.642
173203.000			23.209			-4.642
173305.000			23.209			-4.642
173404.000			23.208			-4.642
173504.000			23.208			-4.642
173605.000			23.209			-4.642
173704.000			23.209			-4.642
173805.000			23.208			-4.642
173903.000			23.207			-4.641
174004.000			23.208			-4.642
174104.000			23.208			-4.642
174204.000			23.207			-4.641
174304.000			23.207			-4.641
174405.000			23.206			-4.641
174504.000			23.207			-4.641
174604.000			23.206			-4.641
174705.000			23.206			-4.641
174803.000			23.205			-4.641
174904.000			23.204			-4.641
175005.000			23.205			-4.641
175104.000			23.205			-4.641
175204.000			23.205			-4.641
175305.000			23.205			-4.641
175404.000			23.205			-4.641
175504.000			23.204			-4.641
175605.000			23.203			-4.641
175703.000			23.202			-4.640
175804.000			23.203			-4.641
175905.000			23.203			-4.641
176004.000			23.203			-4.641
176104.000			23.202			-4.640
176205.000			23.202			-4.640
176304.000			23.201			-4.640
176404.000			23.202			-4.640
176505.000			23.202			-4.640
176603.000			23.200			-4.640
176704.000			23.200			-4.640
176805.000			23.201			-4.640
176904.000			23.201			-4.640
177005.000			23.202			-4.640
177104.000			23.200			-4.640
177204.000			23.200			-4.640
177304.000			23.199			-4.640
177404.000			23.200			-4.640
177503.000			23.200			-4.640
177605.000			23.199			-4.640
177704.000			23.198			-4.640
177804.000			23.198			-4.640
177905.000			23.199			-4.640
178004.000			23.198			-4.640
178104.000			23.198			-4.640
178204.000			23.198			-4.640
178304.000			23.198			-4.640
178403.000			23.197			-4.639
178505.000			23.197			-4.639
178604.000			23.196			-4.639
178704.000			23.196			-4.639
178805.000			23.196			-4.639
178904.000			23.196			-4.639
179004.000			23.195			-4.639
179104.000			23.195			-4.639
179204.000			23.195			-4.639
179303.000			23.196			-4.639
179405.000			23.196			-4.639
179504.000			23.194			-4.639
179604.000			23.193			-4.639
179705.000			23.193			-4.639
179804.000			23.193			-4.639
179904.000			23.194			-4.639
180004.000			23.194			-4.639
180104.000			23.193			-4.639
180204.000			23.192			-4.638
180304.000			23.192			-4.638
180404.000			23.191			-4.638
180505.000			23.192			-4.638
180604.000			23.193			-4.639
180704.000			23.192			-4.638
180805.000			23.192			-4.638
180904.000			23.192			-4.638
181004.000			23.192			-4.638
181104.000			23.191			-4.638
181204.000			23.191			-4.638
181304.000			23.191			-4.638
181405.000			23.191			-4.638
181504.000			23.189			-4.638
181604.000			23.190			-4.638
181705.000			23.189			-4.638
181803.000			23.188			-4.638
181904.000			23.188			-4.638
182004.000			23.189			-4.638
182104.000			23.188			-4.638
182204.000			23.188			-4.638
182305.000			23.188			-4.638
182404.000			23.188			-4.638
182504.000			23.187			-4.637
182605.000			23.187			-4.637
182704.000			23.188			-4.638
182804.000			23.188			-4.638
182904.000			23.187			-4.637
183004.000			23.188			-4.638
183104.000			23.187			-4.637
183204.000			23.187			-4.637
183304.000			23.186			-4.637
183405.000			23.186			-4.637
183504.000			23.186			-4.637
183604.000			23.186			-4.637
183705.000			23.185			-4.637
183803.000			23.185			-4.637
183904.000			23.185			-4.637
184005.000			23.184			-4.637
184104.000			23.184			-4.637
184204.000			23.184			-4.637
184305.000			23.184			-4.637
184404.000			23.184			-4.637
184504.000			23.184			-4.637
184605.000			23.183			-4.637
184703.000			23.183			-4.637
184804.000			23.184			-4.637
184905.000			23.184			-4.637
185004.000			23.183			-4.637
185104.000			23.182			-4.636
185205.000			23.182			-4.636
185304.000			23.182			-4.636
185404.000			23.181			-4.636
185505.000			23.181			-4.636
185603.000			23.181			-4.636
185704.000			23.180			-4.636
185805.000			23.180			-4.636
185904.000			23.181			-4.636
186004.000			23.181			-4.636
186105.000			23.180			-4.636
186204.000			23.181			-4.636
186304.000			23.180			-4.636
186405.000			23.179			-4.636
186503.000			23.178			-4.636
186605.000			23.178			-4.636
186704.000			23.179			-4.636
186804.000			23.179			-4.636
186905.000			23.179			-4.636
187004.000			23.178			-4.636
187104.000			23.178			-4.636
187205.000			23.177			-4.635
187304.000			23.178			-4.636
187403.000			23.177			-4.635
187505.000			23.177			-4.635
187604.000			23.177			-4.635
187704.000			23.178			-4.636
187805.000			23.177			-4.635
187904.000			23.176			-4.635
188004.000			23.175			-4.635
188105.000			23.175			-4.635
188204.000			23.175			-4.635
188303.000			23.176			-4.635
188405.000			23.176			-4.635
188503.000			23.175			-4.635
188604.000			23.174			-4.635
188705.000			23.174			-4.635
188804.000			23.173			-4.635
188904.000			23.173			-4.635
189005.000			23.172			-4.634
189104.000			23.172			-4.634
189203.000			23.174			-4.635
189305.000			23.174			-4.635
189403.000			23.174			-4.635
189504.000			23.172			-4.634
189605.000			23.172			-4.634
189704.000			23.172			-4.634
189805.000			23.172			-4.634
189904.000			23.171			-4.634
190004.000			23.171			-4.634
190105.000			23.171			-4.634
190204.000			23.171			-4.634
190303.000			23.172			-4.634
190405.000			23.171			-4.634
190504.000			23.170			-4.634
190604.000			23.169			-4.634
190705.000			23.169			-4.634
190804.000			23.170			-4.634
190904.000			23.170			-4.634
191004.000			23.170			-4.634
191104.000			23.169			-4.634
191203.000			23.169			-4.634
191305.000			23.169			-4.634
191404.000			23.167			-4.633
191504.000			23.168			-4.634
191605.000			23.168			-4.634
191704.000			23.168			-4.634
191804.000			23.167			-4.633
191904.000			23.167			-4.633
192004.000			23.167			-4.633
192103.000			23.167			-4.633
192205.000			23.167			-4.633
192304.000			23.168			-4.634
192404.000			23.166			-4.633
192505.000			23.166			-4.633
192604.000			23.166			-4.633
192704.000			23.166			-4.633
192804.000			23.166			-4.633
192904.000			23.166			-4.633
193004.000			23.164			-4.633
193104.000			23.165			-4.633
193204.000			23.165			-4.633
193305.000			23.164			-4.633
193404.000			23.163			-4.633
193504.000			23.163			-4.633
193605.000			23.163			-4.633
193703.000			23.163			-4.633
193804.000			23.162			-4.632
193904.000			23.162			-4.632
194004.000			23.163			-4.633
194104.000			23.163			-4.633
194205.000			23.162			-4.632
194304.000			23.162			-4.632
194404.000			23.162			-4.632
194505.000			23.160			-4.632
194603.000			23.161			-4.632
194704.000			23.161			-4.632
194805.000			23.161			-4.632
194904.000			23.161			-4.632
195004.000			23.161			-4.632
195105.000			23.161			-4.632
195204.000			23.160			-4.632
195304.000			23.160			-4.632
195405.000			23.160			-4.632
195503.000			23.160			-4.632
195604.000			23.158			-4.632
195704.000			23.158			-4.632
195804.000			23.158			-4.632
195904.000			23.159			-4.632
196004.000			23.159			-4.632
196104.000			23.158			-4.632
196205.000			23.158			-4.632
196304.000			23.158			-4.632
196403.000			23.157			-4.631
196505.000			23.157			-4.631
196603.000			23.156			-4.631
196704.000			23.157			-4.631
196805.000			23.156			-4.631
196904.000			23.156			-4.631
197004.000			23.156			-4.631
197105.000			23.156			-4.631
197204.000			23.156			-4.631
197303.000			23.156			-4.631
197405.000			23.156			-4.631
197503.000			23.155			-4.631
197604.000			23.154			-4.631
197705.000			23.155			-4.631
197804.000			23.154			-4.631
197904.000			23.154			-4.631
198005.000			23.154			-4.631
198104.000			23.154			-4.631
198204.000			23.152			-4.630
198305.000			23.153			-4.631
198403.000			23.153			-4.631
198504.000			23.153			-4.631
198605.000			23.152			-4.630
198704.000			23.153			-4.631
198804.000			23.153			-4.631
198905.000			23.152			-4.630
199004.000			23.152			-4.630
199104.000			23.152			-4.630
199205.000			23.152			-4.630
199303.000			23.152			-4.630
199405.000			23.152			-4.630
199504.000			23.153			-4.631
199604.000			23.151			-4.630
199705.000			23.151			-4.630
199804.000			23.150			-4.630
199904.000			23.150			-4.630
200005.000			23.151			-4.630
200104.000			23.151			-4.630
200203.000			23.150			-4.630
200305.000			23.150			-4.630
200404.000			23.149			-4.630
200504.000			23.148			-4.630
200605.000			23.149			-4.630
200704.000			23.149			-4.630
200804.000			23.148			-4.630
200904.000			23.147			-4.629
201004.000			23.147			-4.629
201103.000			23.148			-4.630
201205.000			23.146			-4.629
201304.000			23.147			-4.629
201404.000			23.147			-4.629
201505.000			23.147			-4.629
201604.000			23.146			-4.629
201704.000			23.146			-4.629
201804.000			23.146			-4.629
201904.000			23.147			-4.629
202003.000			23.145			-4.629
202105.000			23.146			-4.629
202204.000			23.147			-4.629
202304.000			23.146			-4.629
202405.000			23.145			-4.629
202504.000			23.144			-4.629
202605.000			23.145			-4.629
202703.000			23.144			-4.629
202804.000			23.144			-4.629
202905.000			23.144			-4.629
203004.000			23.144			-4.629
203104.000			23.144			-4.629
203205.000			23.142			-4.628
203304.000			23.144			-4.629
203403.000			23.143			-4.629
203505.000			23.143			-4.629
203604.000			23.142			-4.628
203704.000			23.142			-4.628
203805.000			23.142			-4.628
203904.000			23.142			-4.628
204004.000			23.141			-4.628
204104.000			23.142			-4.628
204204.000			23.142			-4.628
204303.000			23.142			-4.628
204405.000			23.142			-4.628
204504.000			23.142			-4.628
204604.000			23.140			-4.628
204705.000			23.140			-4.628
204804.000			23.139			-4.628
204904.000			23.139			-4.628
205004.000			23.139			-4.628
205104.000			23.140			-4.628
205204.000			23.140			-4.628
205305.000			23.140			-4.628
205404.000			23.139			-4.628
205504.000			23.138			-4.628
205605.000			23.138			-4.628
205704.000			23.138			-4.628
205805.000			23.138			-4.628
205903.000			23.138			-4.628
206004.000			23.138			-4.628
206105.000			23.137			-4.627
206204.000			23.138			-4.628
206304.000			23.137			-4.627
206405.000			23.137			-4.627
206504.000			23.137			-4.627
206603.000			23.137			-4.627
206705.000			23.137			-4.627
206804.000			23.136			-4.627
206904.000			23.137			-4.627
207005.000			23.135			-4.627
207104.000			23.135			-4.627
207204.000			23.135			-4.627
207305.000			23.135			-4.627
207404.000			23.136			-4.627
207503.000			23.136			-4.627
207605.000			23.134			-4.627
207704.000			23.134			-4.627
207804.000			23.133			-4.627
207905.000			23.134			-4.627
208004.000			23.134			-4.627
208104.000			23.134			-4.627
208204.000			23.133			-4.627
208304.000			23.134			-4.627
208403.000			23.133			-4.627
208505.000			23.133			-4.627
208604.000			23.133			-4.627
208704.000			23.133			-4.627
208805.000			23.132			-4.626
208904.000			23.133			-4.627
209005.000			23.132			-4.626
209103.000			23.133			-4.627
209204.000			23.132			-4.626
209304.000			23.133			-4.627
209404.000			23.132			-4.626
209504.000			23.131			-4.626
209605.000			23.131			-4.626
209704.000			23.131			-4.626
209804.000			23.131			-4.626
209905.000			23.130			-4.626
210003.000			23.130			-4.626
210104.000			23.129			-4.626
210205.000			23.129			-4.626
210304.000			23.130			-4.626
210404.000			23.130			-4.626
210505.000			23.129			-4.626
210604.000			23.128			-4.626
210703.000			23.129			-4.626
210805.000			23.128			-4.626
210904.000			23.128			-4.626
211004.000			23.127			-4.625
211105.000			23.127			-4.625
211204.000			23.128			-4.626
211304.000			23.126			-4.625
211405.000			23.126			-4.625
211504.000			23.127			-4.625
211603.000			23.127			-4.625
211705.000			23.127			-4.625
211804.000			23.127			-4.625
211904.000			23.127			-4.625
212005.000			23.127			-4.625
212104.000			23.126			-4.625
212205.000			23.126			-4.625
212303.000			23.125			-4.625
212404.000			23.126			-4.625
212504.000			23.126			-4.625
212604.000			23.125			-4.625
212704.000			23.124			-4.625
212805.000			23.123			-4.625
212904.000			23.124			-4.625
213004.000			23.124			-4.625
213105.000			23.124			-4.625
213203.000			23.124			-4.625
213304.000			23.123			-4.625
213405.000			23.123			-4.625
213504.000			23.122			-4.624
213604.000			23.122			-4.624
213705.000			23.122			-4.624
213804.000			23.122			-4.624
213903.000			23.122			-4.624
214005.000			23.122			-4.624
214104.000			23.121			-4.624
214204.000			23.121			-4.624
214305.000			23.121			-4.624
214404.000			23.122			-4.624
214504.000			23.122			-4.624
214604.000			23.121			-4.624
214704.000			23.119			-4.624
214803.000			23.119			-4.624
214905.000			23.119			-4.624
215004.000			23.119			-4.624
215104.000			23.120			-4.624
215205.000			23.120			-4.624
215304.000			23.120			-4.624
215405.000			23.119			-4.624
215503.000			23.119			-4.624
215604.000			23.119			-4.624
215705.000			23.119			-4.624
215804.000			23.117			-4.623
215904.000			23.117			-4.623
216005.000			23.118			-4.624
216104.000			23.118			-4.624
216204.000			23.116			-4.623
216305.000			23.116			-4.623
216403.000			23.117			-4.623
216504.000			23.117			-4.623
216605.000			23.117			-4.623
216704.000			23.117			-4.623
216804.000			23.116			-4.623
216905.000			23.116			-4.623
217004.000			23.117			-4.623
217103.000			23.116			-4.623
217205.000			23.115			-4.623
217303.000			23.115			-4.623
217404.000			23.115			-4.623
217505.000			23.114			-4.623
217604.000			23.115			-4.623
217704.000			23.115			-4.623
217805.000			23.113			-4.623
217904.000			23.114			-4.623
218003.000			23.115			-4.623
218105.000			23.114			-4.623
218204.000			23.114			-4.623
218304.000			23.113			-4.623
218405.000			23.114			-4.623
218504.000			23.113			-4.623
218605.000			23.113			-4.623
218704.000			23.113			-4.623
218804.000			23.112			-4.622
218904.000			23.111			-4.622
219004.000			23.112			-4.622
219104.000			23.112			-4.622
219205.000			23.111			-4.622
219304.000			23.111			-4.622
219404.000			23.110			-4.622
219505.000			23.110			-4.622
219603.000			23.110			-4.622
219704.000			23.109			-4.622
219805.000			23.109			-4.622
219904.000			23.110			-4.622
220004.000			23.110			-4.622
220105.000			23.109			-4.622
220204.000			23.108			-4.622
220304.000			23.108			-4.622
220405.000			23.108			-4.622
220503.000			23.108			-4.622
220604.000			23.108			-4.622
220705.000			23.108			-4.622
220804.000			23.107			-4.621
220904.000			23.107			-4.621
221005.000			23.108			-4.622
221104.000			23.108			-4.622
221203.000			23.109			-4.622
221305.000			23.108			-4.622
221404.000			23.108			-4.622
221504.000			23.108			-4.622
221605.000			23.108			-4.622
221704.000			23.107			-4.621
221805.000			23.107			-4.621
221903.000			23.107			-4.621
222004.000			23.107			-4.621
222104.000			23.107			-4.621
222204.000			23.106			-4.621
222304.000			23.105			-4.621
222405.000			23.106			-4.621
222504.000			23.106			-4.621
222604.000			23.104			-4.621
222705.000			23.104			-4.621
222803.000			23.105			-4.621
222904.000			23.105			-4.621
223005.000			23.105			-4.621
223104.000			23.103			-4.621
223204.000			23.103			-4.621
223305.000			23.104			-4.621
223404.000			23.103			-4.621
223504.000			23.103			-4.621
223605.000			23.104			-4.621
223703.000			23.103			-4.621
223804.000			23.102			-4.620
223905.000			23.101			-4.620
224004.000			23.102			-4.620
224104.000			23.102			-4.620
224205.000			23.101			-4.620
224304.000			23.102			-4.620
224403.000			23.102			-4.620
224505.000			23.101			-4.620
224604.000			23.101			-4.620
224704.000			23.101			-4.620
224805.000			23.101			-4.620
224904.000			23.101			-4.620
225005.000			23.100			-4.620
225104.000			23.100			-4.620
225204.000			23.100			-4.620
225304.000			23.100			-4.620
225404.000			23.100			-4.620
225504.000			23.099			-4.620
225605.000			23.099			-4.620
225704.000			23.100			-4.620
225804.000			23.099			-4.620
225905.000			23.100			-4.620
226003.000			23.099			-4.620
226104.000			23.098			-4.620
226205.000			23.098			-4.620
226304.000			23.098			-4.620
226404.000			23.098			-4.620
226505.000			23.099			-4.620
226604.000			23.099			-4.620
226704.000			23.098			-4.620
226805.000			23.097			-4.619
226903.000			23.097			-4.619
227004.000			23.097			-4.619
227104.000			23.098			-4.620
227204.000			23.097			-4.619
227304.000			23.096			-4.619
227405.000			23.096			-4.619
227504.000			23.097			-4.619
227604.000			23.096			-4.619
227705.000			23.095			-4.619
227803.000			23.095			-4.619
227904.000			23.096			-4.619
228005.000			23.094			-4.619
228104.000			23.094			-4.619
228205.000			23.094			-4.619
228304.000			23.095			-4.619
228404.000			23.093			-4.619
228505.000			23.093			-4.619
228604.000			23.094			-4.619
228703.000			23.095			-4.619
228805.000			23.094			-4.619
228904.000			23.094			-4.619
229004.000			23.093			-4.619
229105.000			23.092			-4.618
229204.000			23.092			-4.618
229304.000			23.093			-4.619
229405.000			23.092			-4.618
229504.000			23.092			-4.618
229603.000			23.092			-4.618
229705.000			23.092			-4.618
229804.000			23.092			-4.618
229904.000			23.092			-4.618
230005.000			23.092			-4.618
230104.000			23.091			-4.618
230204.000			23.090			-4.618
230305.000			23.090			-4.618
230404.000			23.090			-4.618
230503.000			23.090			-4.618
230605.000			23.091			-4.618
230704.000			23.090			-4.618
230804.000			23.090			-4.618
230905.000			23.091			-4.618
231004.000			23.090			-4.618
231104.000			23.090			-4.618
231203.000			23.090			-4.618
231304.000			23.089			-4.618
231405.000			23.090			-4.618
231504.000			23.089			-4.618
231604.000			23.088			-4.618
231705.000			23.088			-4.618
231804.000			23.089			-4.618
231904.000			23.089			-4.618
232005.000			23.088			-4.618
232103.000			23.087			-4.617
232204.000			23.086			-4.617
232305.000			23.087			-4.617
232404.000			23.088			-4.618
232504.000			23.087			-4.617
232605.000			23.087			-4.617
232704.000			23.086			-4.617
232804.000			23.086			-4.617
232905.000			23.086			-4.617
233003.000			23.086			-4.617
233104.000			23.086			-4.617
233205.000			23.086			-4.617
233304.000			23.085			-4.617
233404.000			23.085			-4.617
233505.000			23.086			-4.617
233604.000			23.086			-4.617
233704.000			23.085			-4.617
233805.000			23.085			-4.617
233903.000			23.085			-4.617
234004.000			23.084			-4.617
234105.000			23.084			-4.617
234204.000			23.084			-4.617
234304.000			23.084			-4.617
234404.000			23.084			-4.617
234504.000			23.083			-4.617
234604.000			23.082			-4.616
234704.000			23.083			-4.617
234803.000			23.084			-4.617
234905.000			23.084			-4.617
235004.000			23.082			-4.616
235104.000			23.082			-4.616
235205.000			23.083			-4.617
235304.000			23.083			-4.617
235404.000			23.082			-4.616
235504.000			23.081			-4.616
235604.000			23.081			-4.616
235704.000			23.081			-4.616
235805.000			23.081			-4.616
235904.000			23.081			-4.616
236004.000			23.081			-4.616
236105.000			23.082			-4.616
236204.000			23.080			-4.616
236304.000			23.079			-4.616
236404.000			23.079			-4.616
236504.000			23.079			-4.616
236604.000			23.079			-4.616
236705.000			23.081			-4.616
236804.000			23.080			-4.616
236904.000			23.079			-4.616
237005.000			23.079			-4.616
237104.000			23.078			-4.616
237204.000			23.078			-4.616
237304.000			23.079			-4.616
237404.000			23.078			-4.616
237504.000			23.078			-4.616
237604.000			23.078			-4.616
237704.000			23.078			-4.616
237805.000			23.077			-4.615
237904.000			23.078			-4.616
238004.000			23.078			-4.616
238105.000			23.077			-4.615
238203.000			23.077			-4.615
238304.000			23.077			-4.615
238405.000			23.076			-4.615
238504.000			23.077			-4.615
238604.000			23.077			-4.615
238705.000			23.076			-4.615
238804.000			23.075			-4.615
238904.000			23.075			-4.615
239005.000			23.075			-4.615
239103.000			23.075			-4.615
239204.000			23.076			-4.615
239305.000			23.076			-4.615
239404.000			23.076			-4.615
239504.000			23.075			-4.615
239605.000			23.073			-4.615
239704.000			23.073			-4.615
239803.000			23.074			-4.615
239905.000			23.074			-4.615
240003.000			23.074			-4.615
240104.000			23.074			-4.615
240205.000			23.075			-4.615
240304.000			23.073			-4.615
240404.000			23.073			-4.615
240505.000			23.073			-4.615
240604.000			23.072			-4.614
240703.000			23.072			-4.614
240805.000			23.072			-4.614
240904.000			23.072			-4.614
241005.000			23.072			-4.614
241104.000			23.072			-4.614
241204.000			23.073			-4.615
241305.000			23.072			-4.614
241404.000			23.071			-4.614
241504.000			23.071			-4.614
241604.000			23.071			-4.614
241704.000			23.070			-4.614
241804.000			23.071			-4.614
241905.000			23.070			-4.614
242004.000			23.072			-4.614
242104.000			23.071			-4.614
242205.000			23.069			-4.614
242303.000			23.069			-4.614
242404.000			23.069			-4.614
242505.000			23.070			-4.614
242604.000			23.070			-4.614
242704.000			23.069			-4.614
242805.000			23.069			-4.614
242904.000			23.068			-4.614
243004.000			23.068			-4.614
243105.000			23.068			-4.614
243203.000			23.068			-4.614
243304.000			23.068			-4.614
243405.000			23.067			-4.613
243504.000			23.067			-4.613
243604.000			23.068			-4.614
243705.000			23.067			-4.613
243804.000			23.067			-4.613
243904.000			23.067			-4.613
244005.000			23.067			-4.613
244103.000			23.067			-4.613
244205.000			23.067			-4.613
244304.000			23.066			-4.613
244404.000			23.065			-4.613
244505.000			23.066			-4.613
244604.000			23.066			-4.613
244704.000			23.065			-4.613
244805.000			23.065			-4.613
244904.000			23.065			-4.613
245003.000			23.065			-4.613
245105.000			23.065			-4.613
245204.000			23.065			-4.613
245304.000			23.065			-4.613
245405.000			23.065			-4.613
245504.000			23.065			-4.613
245604.000			23.064			-4.613
245704.000			23.063			-4.613
245804.000			23.063			-4.613
245903.000			23.063			-4.613
246005.000			23.062			-4.612
246104.000			23.062			-4.612
246204.000			23.063			-4.613
246305.000			23.063			-4.613
246404.000			23.063			-4.613
246504.000			23.063			-4.613
246604.000			23.061			-4.612
246704.000			23.061			-4.612
246804.000			23.061			-4.612
246905.000			23.062			-4.612
247004.000			23.062			-4.612
247104.000			23.061			-4.612
247205.000			23.061			-4.612
247304.000			23.062			-4.612
247405.000			23.061			-4.612
247503.000			23.061			-4.612
247604.000			23.060			-4.612
247705.000			23.060			-4.612
247804.000			23.060			-4.612
247904.000			23.060			-4.612
248005.000			23.060			-4.612
248104.000			23.060			-4.612
248204.000			23.059			-4.612
248305.000			23.058			-4.612
248403.000			23.059			-4.612
248504.000			23.060			-4.612
248605.000			23.059			-4.612
248704.000			23.058			-4.612
248804.000			23.058			-4.612
248905.000			23.058			-4.612
249004.000			23.058			-4.612
249104.000			23.057			-4.611
249205.000			23.057			-4.611
249303.000			23.058			-4.612
249404.000			23.058			-4.612
249505.000			23.057			-4.611
249604.000			23.057			-4.611
249704.000			23.057			-4.611
249805.000			23.057			-4.611
249904.000			23.058			-4.612
250004.000			23.057			-4.611
250105.000			23.055			-4.611
250203.000			23.055			-4.611
250304.000			23.056			-4.611
250405.000			23.055			-4.611
250504.000			23.055			-4.611
250605.000			23.056			-4.611
250704.000			23.055			-4.611
250804.000			23.055			-4.611
250904.000			23.055			-4.611
251004.000			23.055			-4.611
251103.000			23.055			-4.611
251205.000			23.054			-4.611
251304.000			23.053			-4.611
251404.000			23.055			-4.611
251505.000			23.054			-4.611
251604.000			23.054			-4.611
251704.000			23.053			-4.611
251804.000			23.053			-4.611
251904.000			23.053			-4.611
252004.000			23.053			-4.611
252105.000			23.053			-4.611
252204.000			23.052			-4.610
252304.000			23.052			-4.610
252405.000			23.052			-4.610
252504.000			23.052			-4.610
252604.000			23.052			-4.610
252704.000			23.051			-4.610
252804.000			23.051			-4.610
252904.000			23.052			-4.610
253005.000			23.051			-4.610
253104.000			23.051			-4.610
253204.000			23.051			-4.610
253305.000			23.051			-4.610
253403.000			23.051			-4.610
253504.000			23.051			-4.610
253605.000			23.051			-4.610
253704.000			23.050			-4.610
253805.000			23.050			-4.610
253904.000			23.050			-4.610
254004.000			23.049			-4.610
254105.000			23.050			-4.610
254204.000			23.049			-4.610
254303.000			23.050			-4.610
254405.000			23.049			-4.610
254504.000			23.048			-4.610
254604.000			23.047			-4.609
254705.000			23.047			-4.609
254804.000			23.048			-4.610
254904.000			23.049			-4.610
255005.000			23.049			-4.610
255104.000			23.048			-4.610
255203.000			23.048			-4.610
255305.000			23.047			-4.609
255404.000			23.047			-4.609
255504.000			23.046			-4.609
255605.000			23.047			-4.609
255704.000			23.047			-4.609
255804.000			23.046			-4.609
255905.000			23.047			-4.609
256004.000			23.047			-4.609
256103.000			23.047			-4.609
256205.000			23.047			-4.609
256304.000			23.046			-4.609
256404.000			23.046			-4.609
256505.000			23.046			-4.609
256604.000			23.046			-4.609
256704.000			23.046			-4.609
256803.000			23.046			-4.609
256904.000			23.045			-4.609
257004.000			23.045			-4.609
257104.000			23.044			-4.609
257204.000			23.044			-4.609
257305.000			23.044			-4.609
257404.000			23.045			-4.609
257504.000			23.045			-4.609
257605.000			23.044			-4.609
257703.000			23.043			-4.609
257804.000			23.044			-4.609
257905.000			23.045			-4.609
258004.000			23.043			-4.609
258104.000			23.043			-4.609
258205.000			23.043			-4.609
258304.000			23.043			-4.609
258404.000			23.042			-4.608
258505.000			23.042			-4.608
258603.000			23.041			-4.608
258704.000			23.041			-4.608
258805.000			23.041			-4.608
258904.000			23.041			-4.608
259004.000			23.040			-4.608
259105.000			23.042			-4.608
259204.000			23.042			-4.608
259304.000			23.042			-4.608
259405.000			23.040			-4.608
259503.000			23.040			-4.608
259604.000			23.040			-4.608
259705.000			23.040			-4.608
259804.000			23.040			-4.608
259904.000			23.040			-4.608
260004.000			23.040			-4.608
260104.000			23.041			-4.608
260204.000			23.040			-4.608
260304.000			23.040			-4.608
260403.000			23.040			-4.608
260505.000			23.039			-4.608
260604.000			23.039			-4.608
260704.000			23.038			-4.608
260805.000			23.038			-4.608
260904.000			23.038			-4.608
261004.000			23.039			-4.608
261104.000			23.038			-4.608
261204.000			23.037			-4.607
261304.000			23.036			-4.607
261405.000			23.037			-4.607
261504.000			23.037			-4.607
261604.000			23.037			-4.607
261705.000			23.037			-4.607
261804.000			23.037			-4.607
261904.000			23.037			-4.607
262004.000			23.036			-4.607
262104.000			23.035			-4.607
262204.000			23.036			-4.607
262305.000			23.036			-4.607
262404.000			23.035			-4.607
262504.000			23.036			-4.607
262605.000			23.036			-4.607
262703.000			23.035			-4.607
262804.000			23.035			-4.607
262905.000			23.035			-4.607
263004.000			23.035			-4.607
263104.000			23.035			-4.607
263204.000			23.035			-4.607
263304.000			23.035			-4.607
263405.000			23.035			-4.607
263504.000			23.034			-4.607
263603.000			23.033			-4.607
263705.000			23.033			-4.607
263804.000			23.033			-4.607
263904.000			23.033			-4.607
264005.000			23.033			-4.607
264104.000			23.033			-4.607
264204.000			23.033			-4.607
264304.000			23.031			-4.606
264404.000			23.032			-4.606
264504.000			23.032			-4.606
264605.000			23.032			-4.606
264704.000			23.032			-4.606
264804.000			23.031			-4.606
264905.000			23.032			-4.606
265004.000			23.032			-4.606
265104.000			23.032			-4.606
265204.000			23.031			-4.606
265304.000			23.031			-4.606
265404.000			23.032			-4.606
265505.000			23.031			-4.606
265604.000			23.030			-4.606
265704.000			23.031			-4.606
265805.000			23.031			-4.606
265903.000			23.031			-4.606
266004.000			23.031			-4.606
266104.000			23.031			-4.606
266204.000			23.029			-4.606
266304.000			23.029			-4.606
266404.000			23.028			-4.606
266504.000			23.029			-4.606
266605.000			23.028			-4.606
266704.000			23.029			-4.606
266803.000			23.028			-4.606
266905.000			23.028			-4.606
267004.000			23.028			-4.606
267104.000			23.028			-4.606
267205.000			23.028			-4.606
267304.000			23.028			-4.606
267404.000			23.027			-4.605
267505.000			23.027			-4.605
267604.000			23.027			-4.605
267703.000			23.028			-4.606
267805.000			23.028			-4.606
267904.000			23.027			-4.605
268004.000			23.026			-4.605
268105.000			23.027			-4.605
268204.000			23.026			-4.605
268304.000			23.026			-4.605
268405.000			23.027			-4.605
268504.000			23.028			-4.606
268603.000			23.026			-4.605
268705.000			23.025			-4.605
268804.000			23.025			-4.605
268904.000			23.026			-4.605
269005.000			23.025			-4.605
269104.000			23.026			-4.605
269204.000			23.025			-4.605
269304.000			23.026			-4.605
269404.000			23.026			-4.605
269503.000			23.025			-4.605
269605.000			23.024			-4.605
269704.000			23.024			-4.605
269805.000			23.024			-4.605
269904.000			23.025			-4.605
270004.000			23.025			-4.605
270105.000			23.024			-4.605
270203.000			23.023			-4.605
270304.000			23.024			-4.605
270404.000			23.024			-4.605
270504.000			23.024			-4.605
270604.000			23.023			-4.605
270705.000			23.023			-4.605
270804.000			23.024			-4.605
270904.000			23.023			-4.605
271005.000			23.022			-4.604
271103.000			23.022			-4.604
271204.000			23.022			-4.604
271305.000			23.021			-4.604
271404.000			23.022			-4.604
271504.000			23.023			-4.605
271605.000			23.022			-4.604
271704.000			23.022			-4.604
271803.000			23.022			-4.604
271905.000			23.022			-4.604
272004.000			23.022			-4.604
272104.000			23.022			-4.604
272205.000			23.020			-4.604
272304.000			23.020			-4.604
272404.000			23.021			-4.604
272504.000			23.020			-4.604
272604.000			23.020			-4.604
272703.000			23.020			-4.604
272805.000			23.020			-4.604
272904.000			23.019			-4.604
273005.000			23.020			-4.604
273104.000			23.020			-4.604
273204.000			23.020			-4.604
273305.000			23.020			-4.604
273403.000			23.018			-4.604
273504.000			23.017			-4.603
273605.000			23.017			-4.603
273704.000			23.018			-4.604
273804.000			23.017			-4.603
273905.000			23.018			-4.604
274004.000			23.018			-4.604
274104.000			23.019			-4.604
274205.000			23.019			-4.604
274303.000			23.018			-4.604
274404.000			23.017			-4.603
274505.000			23.017			-4.603
274604.000			23.017			-4.603
274704.000			23.017			-4.603
274805.000			23.016			-4.603
274904.000			23.016			-4.603
275003.000			23.017			-4.603
275105.000			23.015			-4.603
275203.000			23.015			-4.603
275304.000			23.016			-4.603
275405.000			23.016			-4.603
275504.000			23.017			-4.603
275604.000			23.017			-4.603
275705.000			23.016			-4.603
275804.000			23.016			-4.603
275903.000			23.015			-4.603
276005.000			23.016			-4.603
276104.000			23.016			-4.603
276205.000			23.015			-4.603
276304.000			23.015			-4.603
276404.000			23.015			-4.603
276505.000			23.015			-4.603
276604.000			23.015			-4.603
276704.000			23.015			-4.603
276804.000			23.014			-4.603
276904.000			23.015			-4.603
277004.000			23.016			-4.603
277105.000			23.016			-4.603
277204.000			23.016			-4.603
277304.000			23.016			-4.603
277405.000			23.017			-4.603
277503.000			23.015			-4.603
277604.000			23.014			-4.603
277705.000			23.015			-4.603
277804.000			23.014			-4.603
277904.000			23.014			-4.603
278005.000			23.013			-4.603
278104.000			23.014			-4.603
278204.000			23.014			-4.603
278305.000			23.014			-4.603
278403.000			23.014			-4.603
278504.000			23.013			-4.603
278605.000			23.013			-4.603
278704.000			23.013			-4.603
278804.000			23.012			-4.602
278905.000			23.012			-4.602
279004.000			23.011			-4.602
279104.000			23.012			-4.602
279205.000			23.011			-4.602
279303.000			23.011			-4.602
279405.000			23.011			-4.602
279504.000			23.012			-4.602
279604.000			23.010			-4.602
279705.000			23.010			-4.602
279804.000			23.010			-4.602
279904.000			23.009			-4.602
280004.000			23.010			-4.602
280104.000			23.010			-4.602
280203.000			23.010			-4.602
280305.000			23.009			-4.602
280404.000			23.008			-4.602
280504.000			23.009			-4.602
280605.000			23.009			-4.602
280704.000			23.009			-4.602
280804.000			23.009			-4.602
280904.000			23.008			-4.602
281004.000			23.008			-4.602
281104.000			23.008			-4.602
281205.000			23.008			-4.602
281304.000			23.007			-4.601
281404.000			23.007			-4.601
281505.000			23.007			-4.601
281604.000			23.006			-4.601
281704.000			23.006			-4.601
281804.000			23.007			-4.601
281904.000			23.007			-4.601
282004.000			23.006			-4.601
282105.000			23.006			-4.601
282204.000			23.006			-4.601
282304.000			23.006			-4.601
282405.000			23.004			-4.601
282503.000			23.004			-4.601
282605.000			23.004			-4.601
282704.000			23.004			-4.601
282804.000			23.004			-4.601
282905.000			23.005			-4.601
283004.000			23.005			-4.601
283104.000			23.003			-4.601
283205.000			23.003			-4.601
283304.000			23.003			-4.601
283403.000			23.003			-4.601
283505.000			23.002			-4.600
283604.000			23.003			-4.601
283704.000			23.002			-4.600
283805.000			23.003			-4.601
283904.000			23.002			-4.600
284004.000			23.002			-4.600
284104.000			23.002			-4.600
284204.000			23.002			-4.600
284303.000			23.003			-4.601
284405.000			23.003			-4.601
284504.000			23.001			-4.600
284604.000			23.001			-4.600
284705.000			23.001			-4.600
284804.000			23.002			-4.600
284904.000			23.001			-4.600
285004.000			23.001			-4.600
285104.000			23.001			-4.600
285204.000			23.001			-4.600
285305.000			23.001			-4.600
285404.000			23.001			-4.600
285504.000			23.000			-4.600
285605.000			23.000			-4.600
285704.000			23.000			-4.600
285805.000			23.000			-4.600
285903.000			23.000			-4.600
286004.000			23.000			-4.600
286105.000			23.000			-4.600
286204.000			22.999			-4.600
286304.000			22.999			-4.600
286405.000			23.000			-4.600
286504.000			23.000			-4.600
286604.000			22.999			-4.600
286705.000			22.999			-4.600
286803.000			22.998			-4.600
286904.000			22.997			-4.599
287004.000			22.998			-4.600
287104.000			22.997			-4.599
287204.000			22.998			-4.600
287305.000			22.998			-4.600
287404.000			22.997			-4.599
287504.000			22.998			-4.600
287605.000			22.997			-4.599
287704.000			22.997			-4.599
287804.000			22.997			-4.599
287904.000			22.998			-4.600
288004.000			22.997			-4.599
288103.000			22.996			-4.599
288205.000			22.996			-4.599
288304.000			22.997			-4.599
288404.000			22.997			-4.599
288505.000			22.997			-4.599
288604.000			22.996			-4.599
288704.000			22.997			-4.599
288804.000			22.997			-4.599
288904.000			22.997			-4.599
289004.000			22.997			-4.599
289104.000			22.997			-4.599
289203.000			22.997			-4.599
289305.000			22.996			-4.599
289404.000			22.995			-4.599
289504.000			22.994			-4.599
289605.000			22.995			-4.599
289704.000			22.995			-4.599
289804.000			22.995			-4.599
289904.000			22.995			-4.599
290004.000			22.994			-4.599
290103.000			22.994			-4.599
290205.000			22.996			-4.599
290304.000			22.995			-4.599
290404.000			22.996			-4.599
290505.000			22.995			-4.599
290604.000			22.994			-4.599
290704.000			22.994			-4.599
290805.000			22.994			-4.599
290904.000			22.993			-4.599
291003.000			22.993			-4.599
291105.000			22.993			-4.599
291204.000			22.993			-4.599
291304.000			22.993			-4.599
291405.000			22.993			-4.599
291504.000			22.993			-4.599
291604.000			22.993			-4.599
291705.000			22.994			-4.599
291804.000			22.993			-4.599
291903.000			22.993			-4.599
292005.000			22.993			-4.599
292103.000			22.992			-4.598
292205.000			22.992			-4.598
292304.000			22.992			-4.598
292404.000			22.991			-4.598
292505.000			22.992			-4.598
292604.000			22.992			-4.598
292704.000			22.991			-4.598
292804.000			22.990			-4.598
292904.000			22.991			-4.598
293003.000			22.990			-4.598
293105.000			22.990			-4.598
293204.000			22.990			-4.598
293304.000			22.989			-4.598
293405.000			22.989			-4.598
293504.000			22.990			-4.598
293604.000			22.989			-4.598
293705.000			22.989			-4.598
293804.000			22.988			-4.598
293903.000			22.989			-4.598
294005.000			22.989			-4.598
294103.000			22.989			-4.598
294204.000			22.990			-4.598
294305.000			22.988			-4.598
294404.000			22.988			-4.598
294504.000			22.988			-4.598
294605.000			22.988			-4.598
294704.000			22.987			-4.597
294804.000			22.986			-4.597
294905.000			22.987			-4.597
295003.000			22.987			-4.597
295104.000			22.987			-4.597
295205.000			22.986			-4.597
295304.000			22.986			-4.597
295405.000			22.986			-4.597
295504.000			22.986			-4.597
295604.000			22.986			-4.597
295705.000			22.986			-4.597
295804.000			22.987			-4.597
295903.000			22.987			-4.597
296005.000			22.987			-4.597
296103.000			22.986			-4.597
296204.000			22.986			-4.597
296305.000			22.985			-4.597
296404.000			22.985			-4.597
296504.000			22.984			-4.597
296605.000			22.984			-4.597
296704.000			22.984			-4.597
296804.000			22.984			-4.597
296905.000			22.984			-4.597
297003.000			22.984			-4.597
297104.000			22.983			-4.597
297205.000			22.983			-4.597
297304.000			22.983			-4.597
297404.000			22.984			-4.597
297505.000			22.985			-4.597
297604.000			22.984			-4.597
297704.000			22.983			-4.597
297805.000			22.983			-4.597
297903.000			22.983			-4.597
298004.000			22.983			-4.597
298104.000			22.983			-4.597
298204.000			22.983			-4.597
298304.000			22.982			-4.596
298404.000			22.982			-4.596
298504.000			22.982			-4.596
298605.000			22.982			-4.596
298704.000			22.981			-4.596
298804.000			22.981			-4.596
298905.000			22.982			-4.596
299003.000			22.983			-4.597
299104.000			22.981			-4.596
299205.000			22.980			-4.596
299304.000			22.981			-4.596
299404.000			22.981			-4.596
299505.000			22.981			-4.596
299604.000			22.981			-4.596
299704.000			22.980			-4.596
299805.000			22.980			-4.596
299903.000			22.980			-4.596
