# Acquired on 25/01/2024 10:21:59 
# SPIDER: Creep_-3mm_GRPCNT1454A-2
# CREEP MEASUREMENT

# time [ms]		force [N]		stiffness [N/mm]
0.000			10.999			-3.666
103.000			11.712			-3.904
205.000			11.853			-3.951
304.000			11.752			-3.917
404.000			11.662			-3.887
505.000			11.541			-3.847
603.000			11.494			-3.831
704.000			11.455			-3.818
805.000			11.420			-3.807
904.000			11.389			-3.796
1004.000			11.360			-3.787
1104.000			11.334			-3.778
1204.000			11.310			-3.770
1304.000			11.267			-3.756
1405.000			11.248			-3.749
1504.000			11.229			-3.743
1604.000			11.212			-3.737
1705.000			11.196			-3.732
1803.000			11.180			-3.727
1904.000			11.166			-3.722
2005.000			11.140			-3.713
2104.000			11.128			-3.709
2205.000			11.115			-3.705
2303.000			11.103			-3.701
2404.000			11.092			-3.697
2505.000			11.082			-3.694
2604.000			11.072			-3.691
2704.000			11.053			-3.684
2805.000			11.043			-3.681
2904.000			11.033			-3.678
3003.000			11.025			-3.675
3105.000			11.018			-3.673
3204.000			11.010			-3.670
3304.000			11.002			-3.667
3405.000			10.987			-3.662
3503.000			10.979			-3.660
3604.000			10.972			-3.657
3705.000			10.965			-3.655
3804.000			10.958			-3.653
3904.000			10.952			-3.651
4005.000			10.945			-3.648
4104.000			10.939			-3.646
4203.000			10.926			-3.642
4305.000			10.920			-3.640
4404.000			10.915			-3.638
4504.000			10.909			-3.636
4605.000			10.905			-3.635
4703.000			10.898			-3.633
4804.000			10.894			-3.631
4905.000			10.883			-3.628
5004.000			10.878			-3.626
5104.000			10.873			-3.624
5204.000			10.868			-3.623
5304.000			10.863			-3.621
5403.000			10.858			-3.619
5504.000			10.854			-3.618
5604.000			10.846			-3.615
5705.000			10.841			-3.614
5804.000			10.837			-3.612
5903.000			10.834			-3.611
6005.000			10.829			-3.610
6104.000			10.824			-3.608
6204.000			10.820			-3.607
6305.000			10.816			-3.605
6404.000			10.808			-3.603
6504.000			10.804			-3.601
6604.000			10.801			-3.600
6704.000			10.798			-3.599
6804.000			10.794			-3.598
6905.000			10.790			-3.597
7004.000			10.788			-3.596
7104.000			10.780			-3.593
7205.000			10.777			-3.592
7303.000			10.774			-3.591
7404.000			10.770			-3.590
7505.000			10.767			-3.589
7604.000			10.764			-3.588
7704.000			10.761			-3.587
7804.000			10.755			-3.585
7904.000			10.752			-3.584
8004.000			10.749			-3.583
8105.000			10.746			-3.582
8204.000			10.742			-3.581
8304.000			10.740			-3.580
8405.000			10.737			-3.579
8503.000			10.734			-3.578
8605.000			10.728			-3.576
8704.000			10.725			-3.575
8804.000			10.723			-3.574
8905.000			10.721			-3.574
9004.000			10.719			-3.573
9104.000			10.715			-3.572
9204.000			10.712			-3.571
9304.000			10.707			-3.569
9404.000			10.704			-3.568
9505.000			10.702			-3.567
9604.000			10.700			-3.567
9703.000			10.698			-3.566
9805.000			10.695			-3.565
9904.000			10.692			-3.564
10004.000			10.687			-3.562
10105.000			10.685			-3.562
10204.000			10.682			-3.561
10304.000			10.681			-3.560
10404.000			10.678			-3.559
10504.000			10.675			-3.558
10604.000			10.674			-3.558
10705.000			10.669			-3.556
10804.000			10.667			-3.556
10904.000			10.665			-3.555
11005.000			10.662			-3.554
11104.000			10.661			-3.554
11204.000			10.658			-3.553
11305.000			10.656			-3.552
11404.000			10.653			-3.551
11504.000			10.651			-3.550
11603.000			10.649			-3.550
11704.000			10.646			-3.549
11805.000			10.644			-3.548
11904.000			10.643			-3.548
12004.000			10.641			-3.547
12105.000			10.639			-3.546
12204.000			10.635			-3.545
12303.000			10.632			-3.544
12405.000			10.630			-3.543
12504.000			10.629			-3.543
12604.000			10.628			-3.543
12705.000			10.626			-3.542
12804.000			10.624			-3.541
12904.000			10.620			-3.540
13004.000			10.618			-3.539
13104.000			10.616			-3.539
13204.000			10.614			-3.538
13305.000			10.612			-3.537
13404.000			10.611			-3.537
13503.000			10.609			-3.536
13605.000			10.607			-3.536
13704.000			10.605			-3.535
13804.000			10.603			-3.534
13905.000			10.600			-3.533
14004.000			10.599			-3.533
14104.000			10.599			-3.533
14204.000			10.597			-3.532
14304.000			10.594			-3.531
14404.000			10.592			-3.531
14505.000			10.590			-3.530
14604.000			10.588			-3.529
14704.000			10.587			-3.529
14805.000			10.587			-3.529
14903.000			10.585			-3.528
15005.000			10.582			-3.527
15104.000			10.580			-3.527
15204.000			10.579			-3.526
15305.000			10.576			-3.525
15404.000			10.576			-3.525
15504.000			10.574			-3.525
15604.000			10.571			-3.524
15704.000			10.570			-3.523
15804.000			10.568			-3.523
15905.000			10.566			-3.522
16004.000			10.564			-3.521
16104.000			10.563			-3.521
16205.000			10.563			-3.521
16303.000			10.561			-3.520
16404.000			10.558			-3.519
16505.000			10.556			-3.519
16604.000			10.554			-3.518
16704.000			10.553			-3.518
16804.000			10.552			-3.517
16904.000			10.550			-3.517
17004.000			10.548			-3.516
17105.000			10.547			-3.516
17204.000			10.547			-3.516
17304.000			10.544			-3.515
17405.000			10.542			-3.514
17503.000			10.541			-3.514
17604.000			10.539			-3.513
17705.000			10.538			-3.513
17804.000			10.537			-3.512
17904.000			10.536			-3.512
18004.000			10.532			-3.511
18104.000			10.531			-3.510
18203.000			10.530			-3.510
18304.000			10.529			-3.510
18404.000			10.527			-3.509
18505.000			10.526			-3.509
18604.000			10.525			-3.508
18704.000			10.523			-3.508
18805.000			10.521			-3.507
18903.000			10.521			-3.507
19004.000			10.519			-3.506
19105.000			10.517			-3.506
19204.000			10.516			-3.505
19304.000			10.515			-3.505
19404.000			10.513			-3.504
19504.000			10.511			-3.504
19604.000			10.510			-3.503
19705.000			10.509			-3.503
19804.000			10.507			-3.502
19904.000			10.506			-3.502
20005.000			10.505			-3.502
20103.000			10.505			-3.502
20204.000			10.502			-3.501
20305.000			10.501			-3.500
20404.000			10.500			-3.500
20504.000			10.499			-3.500
20605.000			10.498			-3.499
20704.000			10.497			-3.499
20803.000			10.496			-3.499
20905.000			10.494			-3.498
21004.000			10.492			-3.497
21104.000			10.491			-3.497
21205.000			10.490			-3.497
21304.000			10.489			-3.496
21405.000			10.488			-3.496
21503.000			10.487			-3.496
21604.000			10.486			-3.495
21705.000			10.484			-3.495
21804.000			10.482			-3.494
21904.000			10.481			-3.494
22005.000			10.481			-3.494
22104.000			10.480			-3.493
22203.000			10.479			-3.493
22305.000			10.477			-3.492
22404.000			10.476			-3.492
22504.000			10.475			-3.492
22605.000			10.475			-3.492
22704.000			10.473			-3.491
22804.000			10.471			-3.490
22904.000			10.470			-3.490
23004.000			10.469			-3.490
23104.000			10.467			-3.489
23205.000			10.465			-3.488
23304.000			10.465			-3.488
23403.000			10.465			-3.488
23505.000			10.463			-3.488
23604.000			10.462			-3.487
23704.000			10.460			-3.487
23805.000			10.459			-3.486
23904.000			10.459			-3.486
24004.000			10.458			-3.486
24104.000			10.458			-3.486
24204.000			10.456			-3.485
24304.000			10.455			-3.485
24404.000			10.454			-3.485
24504.000			10.453			-3.484
24605.000			10.451			-3.484
24704.000			10.450			-3.483
24803.000			10.448			-3.483
24905.000			10.448			-3.483
25004.000			10.447			-3.482
25104.000			10.447			-3.482
25205.000			10.445			-3.482
25304.000			10.444			-3.481
25404.000			10.442			-3.481
25505.000			10.442			-3.481
25604.000			10.441			-3.480
25704.000			10.440			-3.480
25805.000			10.439			-3.480
25904.000			10.438			-3.479
26003.000			10.438			-3.479
26105.000			10.437			-3.479
26204.000			10.436			-3.479
26304.000			10.434			-3.478
26405.000			10.434			-3.478
26504.000			10.433			-3.478
26604.000			10.433			-3.478
26704.000			10.432			-3.477
26804.000			10.431			-3.477
26904.000			10.429			-3.476
27005.000			10.428			-3.476
27104.000			10.428			-3.476
27203.000			10.427			-3.476
27305.000			10.427			-3.476
27404.000			10.426			-3.475
27504.000			10.425			-3.475
27605.000			10.424			-3.475
27704.000			10.422			-3.474
27805.000			10.422			-3.474
27903.000			10.421			-3.474
28004.000			10.419			-3.473
28105.000			10.418			-3.473
28204.000			10.417			-3.472
28304.000			10.417			-3.472
28405.000			10.416			-3.472
28504.000			10.415			-3.472
28603.000			10.414			-3.471
28705.000			10.413			-3.471
28804.000			10.412			-3.471
28904.000			10.411			-3.470
29005.000			10.411			-3.470
29104.000			10.409			-3.470
29204.000			10.409			-3.470
29304.000			10.408			-3.469
29404.000			10.407			-3.469
29504.000			10.406			-3.469
29605.000			10.404			-3.468
29704.000			10.404			-3.468
29804.000			10.403			-3.468
29905.000			10.400			-3.467
30003.000			10.400			-3.467
30104.000			10.400			-3.467
30205.000			10.399			-3.466
30304.000			10.398			-3.466
30404.000			10.397			-3.466
30504.000			10.396			-3.465
30604.000			10.395			-3.465
30704.000			10.394			-3.465
30804.000			10.393			-3.464
30904.000			10.393			-3.464
31005.000			10.392			-3.464
31104.000			10.391			-3.464
31203.000			10.390			-3.463
31305.000			10.388			-3.463
31404.000			10.388			-3.463
31504.000			10.387			-3.462
31605.000			10.387			-3.462
31704.000			10.387			-3.462
31804.000			10.386			-3.462
31904.000			10.384			-3.461
32004.000			10.383			-3.461
32104.000			10.382			-3.461
32205.000			10.381			-3.460
32304.000			10.381			-3.460
32404.000			10.381			-3.460
32505.000			10.380			-3.460
32603.000			10.378			-3.459
32704.000			10.378			-3.459
32805.000			10.377			-3.459
32904.000			10.377			-3.459
33004.000			10.377			-3.459
33104.000			10.375			-3.458
33204.000			10.374			-3.458
33304.000			10.375			-3.458
33405.000			10.373			-3.458
33504.000			10.371			-3.457
33604.000			10.370			-3.457
33705.000			10.371			-3.457
33803.000			10.371			-3.457
33904.000			10.370			-3.457
34005.000			10.370			-3.457
34104.000			10.369			-3.456
34205.000			10.367			-3.456
34304.000			10.367			-3.456
34404.000			10.367			-3.456
34504.000			10.367			-3.456
34604.000			10.365			-3.455
34704.000			10.365			-3.455
34805.000			10.365			-3.455
34904.000			10.363			-3.454
35004.000			10.363			-3.454
35105.000			10.363			-3.454
35204.000			10.363			-3.454
35304.000			10.363			-3.454
35405.000			10.361			-3.454
35504.000			10.360			-3.453
35604.000			10.360			-3.453
35704.000			10.359			-3.453
35804.000			10.358			-3.453
35904.000			10.358			-3.453
36005.000			10.357			-3.452
36104.000			10.356			-3.452
36204.000			10.354			-3.451
36305.000			10.356			-3.452
36403.000			10.355			-3.452
36504.000			10.354			-3.451
36605.000			10.352			-3.451
36704.000			10.351			-3.450
36804.000			10.350			-3.450
36905.000			10.350			-3.450
37004.000			10.349			-3.450
37103.000			10.348			-3.449
37205.000			10.347			-3.449
37304.000			10.347			-3.449
37405.000			10.347			-3.449
37504.000			10.346			-3.449
37604.000			10.345			-3.448
37705.000			10.344			-3.448
37803.000			10.343			-3.448
37904.000			10.342			-3.447
38005.000			10.340			-3.447
38104.000			10.340			-3.447
38204.000			10.341			-3.447
38304.000			10.340			-3.447
38404.000			10.339			-3.446
38504.000			10.337			-3.446
38605.000			10.337			-3.446
38704.000			10.336			-3.445
38804.000			10.334			-3.445
38905.000			10.335			-3.445
39003.000			10.334			-3.445
39104.000			10.333			-3.444
39205.000			10.333			-3.444
39304.000			10.332			-3.444
39404.000			10.331			-3.444
39505.000			10.331			-3.444
39604.000			10.329			-3.443
39703.000			10.329			-3.443
39805.000			10.329			-3.443
39904.000			10.329			-3.443
40004.000			10.327			-3.442
40105.000			10.327			-3.442
40204.000			10.326			-3.442
40304.000			10.326			-3.442
40405.000			10.326			-3.442
40504.000			10.326			-3.442
40605.000			10.325			-3.442
40704.000			10.324			-3.441
40804.000			10.324			-3.441
40904.000			10.324			-3.441
41004.000			10.323			-3.441
41104.000			10.322			-3.441
41205.000			10.321			-3.440
41304.000			10.320			-3.440
41404.000			10.321			-3.440
41505.000			10.320			-3.440
41603.000			10.319			-3.440
41704.000			10.320			-3.440
41805.000			10.319			-3.440
41904.000			10.318			-3.439
42004.000			10.318			-3.439
42104.000			10.317			-3.439
42204.000			10.316			-3.439
42304.000			10.315			-3.438
42405.000			10.314			-3.438
42504.000			10.315			-3.438
42604.000			10.314			-3.438
42705.000			10.313			-3.438
42803.000			10.313			-3.438
42904.000			10.313			-3.438
43005.000			10.312			-3.437
43104.000			10.313			-3.438
43204.000			10.312			-3.437
43304.000			10.311			-3.437
43404.000			10.312			-3.437
43504.000			10.311			-3.437
43604.000			10.309			-3.436
43704.000			10.308			-3.436
43805.000			10.308			-3.436
43904.000			10.307			-3.436
44003.000			10.307			-3.436
44105.000			10.306			-3.435
44204.000			10.306			-3.435
44304.000			10.306			-3.435
44405.000			10.306			-3.435
44504.000			10.304			-3.435
44604.000			10.304			-3.435
44704.000			10.302			-3.434
44804.000			10.302			-3.434
44904.000			10.301			-3.434
45005.000			10.300			-3.433
45104.000			10.300			-3.433
45203.000			10.300			-3.433
45305.000			10.300			-3.433
45404.000			10.299			-3.433
45504.000			10.299			-3.433
45605.000			10.298			-3.433
45704.000			10.297			-3.432
45804.000			10.296			-3.432
45904.000			10.295			-3.432
46004.000			10.295			-3.432
46104.000			10.295			-3.432
46205.000			10.295			-3.432
46304.000			10.296			-3.432
46404.000			10.295			-3.432
46505.000			10.293			-3.431
46603.000			10.293			-3.431
46704.000			10.291			-3.430
46805.000			10.290			-3.430
46904.000			10.290			-3.430
47005.000			10.290			-3.430
47104.000			10.289			-3.430
47204.000			10.287			-3.429
47304.000			10.287			-3.429
47404.000			10.287			-3.429
47504.000			10.287			-3.429
47605.000			10.286			-3.429
47704.000			10.285			-3.428
47804.000			10.285			-3.428
47905.000			10.284			-3.428
48003.000			10.283			-3.428
48104.000			10.283			-3.428
48205.000			10.282			-3.427
48304.000			10.282			-3.427
48404.000			10.281			-3.427
48504.000			10.280			-3.427
48604.000			10.279			-3.426
48704.000			10.279			-3.426
48805.000			10.278			-3.426
48904.000			10.277			-3.426
49004.000			10.277			-3.426
49105.000			10.276			-3.425
49203.000			10.276			-3.425
49304.000			10.275			-3.425
49405.000			10.275			-3.425
49504.000			10.274			-3.425
49604.000			10.273			-3.424
49705.000			10.273			-3.424
49804.000			10.272			-3.424
49903.000			10.272			-3.424
50005.000			10.272			-3.424
50104.000			10.270			-3.423
50205.000			10.271			-3.424
50304.000			10.269			-3.423
50404.000			10.268			-3.423
50505.000			10.269			-3.423
50603.000			10.269			-3.423
50704.000			10.268			-3.423
50805.000			10.269			-3.423
50904.000			10.268			-3.423
51004.000			10.268			-3.423
51104.000			10.267			-3.422
51204.000			10.266			-3.422
51304.000			10.266			-3.422
51405.000			10.265			-3.422
51504.000			10.266			-3.422
51604.000			10.264			-3.421
51705.000			10.263			-3.421
51803.000			10.263			-3.421
51904.000			10.262			-3.421
52005.000			10.262			-3.421
52104.000			10.261			-3.420
52204.000			10.261			-3.420
52305.000			10.261			-3.420
52404.000			10.261			-3.420
52503.000			10.260			-3.420
52605.000			10.260			-3.420
52704.000			10.259			-3.420
52804.000			10.258			-3.419
52905.000			10.257			-3.419
53003.000			10.257			-3.419
53104.000			10.256			-3.419
53205.000			10.254			-3.418
53304.000			10.254			-3.418
53405.000			10.255			-3.418
53504.000			10.255			-3.418
53604.000			10.254			-3.418
53704.000			10.253			-3.418
53804.000			10.252			-3.417
53904.000			10.251			-3.417
54005.000			10.251			-3.417
54104.000			10.251			-3.417
54204.000			10.250			-3.417
54305.000			10.250			-3.417
54403.000			10.249			-3.416
54504.000			10.248			-3.416
54605.000			10.248			-3.416
54704.000			10.248			-3.416
54804.000			10.248			-3.416
54905.000			10.247			-3.416
55004.000			10.247			-3.416
55103.000			10.246			-3.415
55205.000			10.246			-3.415
55304.000			10.246			-3.415
55404.000			10.246			-3.415
55505.000			10.244			-3.415
55603.000			10.245			-3.415
55704.000			10.247			-3.416
55805.000			10.246			-3.415
55904.000			10.245			-3.415
56004.000			10.244			-3.415
56105.000			10.243			-3.414
56204.000			10.243			-3.414
56303.000			10.242			-3.414
56405.000			10.243			-3.414
56504.000			10.243			-3.414
56605.000			10.242			-3.414
56704.000			10.242			-3.414
56804.000			10.242			-3.414
56905.000			10.241			-3.414
57003.000			10.240			-3.413
57104.000			10.240			-3.413
57205.000			10.240			-3.413
57304.000			10.239			-3.413
57404.000			10.240			-3.413
57504.000			10.238			-3.413
57604.000			10.238			-3.413
57704.000			10.237			-3.412
57805.000			10.237			-3.412
57904.000			10.237			-3.412
58004.000			10.238			-3.413
58105.000			10.237			-3.412
58203.000			10.236			-3.412
58304.000			10.235			-3.412
58405.000			10.234			-3.411
58504.000			10.234			-3.411
58604.000			10.233			-3.411
58705.000			10.232			-3.411
58804.000			10.232			-3.411
58903.000			10.231			-3.410
59005.000			10.231			-3.410
59104.000			10.230			-3.410
59204.000			10.230			-3.410
59305.000			10.229			-3.410
59404.000			10.228			-3.409
59504.000			10.227			-3.409
59603.000			10.227			-3.409
59704.000			10.227			-3.409
59805.000			10.225			-3.408
59904.000			10.226			-3.409
60004.000			10.226			-3.409
60105.000			10.224			-3.408
60204.000			10.223			-3.408
60303.000			10.224			-3.408
60405.000			10.222			-3.407
60504.000			10.221			-3.407
60604.000			10.221			-3.407
60705.000			10.222			-3.407
60803.000			10.222			-3.407
60904.000			10.220			-3.407
61005.000			10.220			-3.407
61104.000			10.219			-3.406
61204.000			10.218			-3.406
61305.000			10.218			-3.406
61404.000			10.218			-3.406
61503.000			10.217			-3.406
61605.000			10.216			-3.405
61704.000			10.217			-3.406
61804.000			10.215			-3.405
61905.000			10.215			-3.405
62004.000			10.215			-3.405
62104.000			10.215			-3.405
62205.000			10.214			-3.405
62304.000			10.213			-3.404
62404.000			10.214			-3.405
62505.000			10.212			-3.404
62604.000			10.211			-3.404
62703.000			10.212			-3.404
62805.000			10.212			-3.404
62904.000			10.211			-3.404
63005.000			10.211			-3.404
63104.000			10.211			-3.404
63204.000			10.211			-3.404
63305.000			10.209			-3.403
63403.000			10.209			-3.403
63504.000			10.209			-3.403
63605.000			10.209			-3.403
63704.000			10.208			-3.403
63804.000			10.207			-3.402
63904.000			10.206			-3.402
64004.000			10.204			-3.401
64104.000			10.205			-3.402
64205.000			10.205			-3.402
64304.000			10.205			-3.402
64404.000			10.204			-3.401
64505.000			10.203			-3.401
64603.000			10.203			-3.401
64704.000			10.202			-3.401
64805.000			10.203			-3.401
64904.000			10.203			-3.401
65004.000			10.203			-3.401
65104.000			10.203			-3.401
65204.000			10.202			-3.401
65304.000			10.201			-3.400
65405.000			10.200			-3.400
65504.000			10.201			-3.400
65604.000			10.199			-3.400
65705.000			10.199			-3.400
65803.000			10.199			-3.400
65904.000			10.198			-3.399
66005.000			10.198			-3.399
66104.000			10.198			-3.399
66205.000			10.198			-3.399
66304.000			10.197			-3.399
66404.000			10.196			-3.399
66504.000			10.196			-3.399
66604.000			10.196			-3.399
66704.000			10.195			-3.398
66805.000			10.195			-3.398
66904.000			10.195			-3.398
67004.000			10.193			-3.398
67105.000			10.193			-3.398
67203.000			10.193			-3.398
67304.000			10.193			-3.398
67405.000			10.193			-3.398
67504.000			10.193			-3.398
67604.000			10.193			-3.398
67705.000			10.192			-3.397
67804.000			10.192			-3.397
67903.000			10.192			-3.397
68005.000			10.192			-3.397
68104.000			10.191			-3.397
68204.000			10.191			-3.397
68305.000			10.190			-3.397
68404.000			10.191			-3.397
68504.000			10.190			-3.397
68604.000			10.189			-3.396
68704.000			10.189			-3.396
68804.000			10.190			-3.397
68905.000			10.189			-3.396
69004.000			10.188			-3.396
69104.000			10.189			-3.396
69205.000			10.188			-3.396
69303.000			10.187			-3.396
69405.000			10.187			-3.396
69504.000			10.188			-3.396
69604.000			10.188			-3.396
69705.000			10.186			-3.395
69804.000			10.185			-3.395
69904.000			10.187			-3.396
70004.000			10.185			-3.395
70104.000			10.184			-3.395
70204.000			10.184			-3.395
70305.000			10.184			-3.395
70404.000			10.185			-3.395
70504.000			10.185			-3.395
70605.000			10.182			-3.394
70703.000			10.183			-3.394
70804.000			10.182			-3.394
70905.000			10.182			-3.394
71004.000			10.182			-3.394
71104.000			10.181			-3.394
71205.000			10.180			-3.393
71304.000			10.179			-3.393
71403.000			10.180			-3.393
71505.000			10.179			-3.393
71604.000			10.178			-3.393
71704.000			10.178			-3.393
71805.000			10.177			-3.392
71904.000			10.177			-3.392
72004.000			10.177			-3.392
72104.000			10.176			-3.392
72204.000			10.177			-3.392
72304.000			10.176			-3.392
72404.000			10.176			-3.392
72504.000			10.175			-3.392
72605.000			10.176			-3.392
72704.000			10.175			-3.392
72803.000			10.173			-3.391
72905.000			10.173			-3.391
73004.000			10.173			-3.391
73104.000			10.173			-3.391
73205.000			10.173			-3.391
73304.000			10.172			-3.391
73404.000			10.172			-3.391
73505.000			10.171			-3.390
73604.000			10.171			-3.390
73704.000			10.172			-3.391
73805.000			10.171			-3.390
73904.000			10.170			-3.390
74003.000			10.170			-3.390
74105.000			10.170			-3.390
74204.000			10.170			-3.390
74304.000			10.169			-3.390
74405.000			10.168			-3.389
74504.000			10.167			-3.389
74604.000			10.167			-3.389
74704.000			10.166			-3.389
74804.000			10.166			-3.389
74904.000			10.166			-3.389
75005.000			10.166			-3.389
75104.000			10.165			-3.388
75204.000			10.164			-3.388
75305.000			10.165			-3.388
75403.000			10.164			-3.388
75504.000			10.164			-3.388
75605.000			10.164			-3.388
75704.000			10.164			-3.388
75805.000			10.164			-3.388
75904.000			10.164			-3.388
76004.000			10.163			-3.388
76104.000			10.162			-3.387
76204.000			10.162			-3.387
76304.000			10.161			-3.387
76405.000			10.161			-3.387
76504.000			10.161			-3.387
76604.000			10.161			-3.387
76705.000			10.160			-3.387
76803.000			10.160			-3.387
76904.000			10.159			-3.386
77005.000			10.159			-3.386
77104.000			10.159			-3.386
77204.000			10.158			-3.386
77305.000			10.158			-3.386
77404.000			10.158			-3.386
77503.000			10.158			-3.386
77605.000			10.158			-3.386
77704.000			10.157			-3.386
77804.000			10.156			-3.385
77905.000			10.158			-3.386
78004.000			10.157			-3.386
78104.000			10.156			-3.385
78204.000			10.156			-3.385
78304.000			10.156			-3.385
78404.000			10.155			-3.385
78505.000			10.154			-3.385
78604.000			10.154			-3.385
78704.000			10.153			-3.384
78805.000			10.153			-3.384
78903.000			10.154			-3.385
79005.000			10.153			-3.384
79104.000			10.152			-3.384
79204.000			10.152			-3.384
79305.000			10.152			-3.384
79404.000			10.151			-3.384
79504.000			10.151			-3.384
79604.000			10.151			-3.384
79704.000			10.152			-3.384
79804.000			10.151			-3.384
79905.000			10.151			-3.384
80004.000			10.150			-3.383
80103.000			10.150			-3.383
80205.000			10.150			-3.383
80304.000			10.149			-3.383
80404.000			10.149			-3.383
80505.000			10.149			-3.383
80604.000			10.149			-3.383
80704.000			10.149			-3.383
80804.000			10.148			-3.383
80904.000			10.148			-3.383
81004.000			10.147			-3.382
81105.000			10.146			-3.382
81204.000			10.147			-3.382
81304.000			10.147			-3.382
81405.000			10.146			-3.382
81503.000			10.146			-3.382
81604.000			10.146			-3.382
81705.000			10.146			-3.382
81804.000			10.145			-3.382
81904.000			10.145			-3.382
82004.000			10.145			-3.382
82104.000			10.145			-3.382
82203.000			10.144			-3.381
82304.000			10.143			-3.381
82404.000			10.142			-3.381
82505.000			10.142			-3.381
82604.000			10.142			-3.381
82704.000			10.141			-3.380
82805.000			10.142			-3.381
82903.000			10.142			-3.381
83004.000			10.142			-3.381
83105.000			10.140			-3.380
83204.000			10.140			-3.380
83304.000			10.140			-3.380
83404.000			10.139			-3.380
83504.000			10.139			-3.380
83603.000			10.140			-3.380
83705.000			10.138			-3.379
83804.000			10.137			-3.379
83904.000			10.136			-3.379
84005.000			10.136			-3.379
84103.000			10.137			-3.379
84204.000			10.136			-3.379
84305.000			10.135			-3.378
84404.000			10.136			-3.379
84504.000			10.135			-3.378
84605.000			10.135			-3.378
84704.000			10.135			-3.378
84803.000			10.135			-3.378
84905.000			10.134			-3.378
85004.000			10.133			-3.378
85104.000			10.133			-3.378
85205.000			10.133			-3.378
85304.000			10.134			-3.378
85405.000			10.134			-3.378
85503.000			10.134			-3.378
85604.000			10.134			-3.378
85705.000			10.133			-3.378
85804.000			10.132			-3.377
85904.000			10.132			-3.377
86005.000			10.132			-3.377
86104.000			10.131			-3.377
86203.000			10.131			-3.377
86305.000			10.131			-3.377
86404.000			10.130			-3.377
86504.000			10.130			-3.377
86605.000			10.130			-3.377
86704.000			10.130			-3.377
86804.000			10.130			-3.377
86904.000			10.130			-3.377
87004.000			10.129			-3.376
87104.000			10.129			-3.376
87205.000			10.129			-3.376
87304.000			10.128			-3.376
87403.000			10.129			-3.376
87505.000			10.128			-3.376
87604.000			10.128			-3.376
87704.000			10.128			-3.376
87805.000			10.127			-3.376
87904.000			10.127			-3.376
88004.000			10.126			-3.375
88104.000			10.126			-3.375
88204.000			10.125			-3.375
88304.000			10.124			-3.375
88404.000			10.124			-3.375
88504.000			10.124			-3.375
88605.000			10.125			-3.375
88704.000			10.124			-3.375
88803.000			10.124			-3.375
88905.000			10.123			-3.374
89004.000			10.123			-3.374
89104.000			10.122			-3.374
89205.000			10.122			-3.374
89304.000			10.122			-3.374
89404.000			10.121			-3.374
89504.000			10.121			-3.374
89604.000			10.121			-3.374
89704.000			10.121			-3.374
89805.000			10.121			-3.374
89904.000			10.120			-3.373
90004.000			10.120			-3.373
90105.000			10.120			-3.373
90203.000			10.120			-3.373
90304.000			10.119			-3.373
90405.000			10.120			-3.373
90504.000			10.119			-3.373
90604.000			10.119			-3.373
90705.000			10.119			-3.373
90804.000			10.118			-3.373
90903.000			10.118			-3.373
91005.000			10.118			-3.373
91104.000			10.117			-3.372
91204.000			10.117			-3.372
91305.000			10.117			-3.372
91404.000			10.117			-3.372
91504.000			10.118			-3.373
91603.000			10.117			-3.372
91704.000			10.116			-3.372
91805.000			10.116			-3.372
91904.000			10.116			-3.372
92004.000			10.115			-3.372
92104.000			10.114			-3.371
92204.000			10.114			-3.371
92304.000			10.114			-3.371
92405.000			10.114			-3.371
92504.000			10.113			-3.371
92604.000			10.113			-3.371
92705.000			10.112			-3.371
92803.000			10.112			-3.371
92904.000			10.112			-3.371
93005.000			10.111			-3.370
93104.000			10.110			-3.370
93204.000			10.112			-3.371
93305.000			10.111			-3.370
93404.000			10.110			-3.370
93503.000			10.110			-3.370
93605.000			10.110			-3.370
93704.000			10.110			-3.370
93804.000			10.110			-3.370
93905.000			10.108			-3.369
94004.000			10.109			-3.370
94104.000			10.109			-3.370
94204.000			10.108			-3.369
94304.000			10.108			-3.369
94404.000			10.108			-3.369
94505.000			10.107			-3.369
94604.000			10.107			-3.369
94703.000			10.107			-3.369
94805.000			10.106			-3.369
94904.000			10.107			-3.369
95005.000			10.106			-3.369
95104.000			10.106			-3.369
95204.000			10.106			-3.369
95305.000			10.105			-3.368
95403.000			10.104			-3.368
95504.000			10.105			-3.368
95605.000			10.104			-3.368
95704.000			10.104			-3.368
95804.000			10.105			-3.368
95905.000			10.103			-3.368
96004.000			10.103			-3.368
96103.000			10.104			-3.368
96205.000			10.103			-3.368
96304.000			10.102			-3.367
96404.000			10.102			-3.367
96505.000			10.102			-3.367
96604.000			10.101			-3.367
96704.000			10.101			-3.367
96804.000			10.101			-3.367
96904.000			10.101			-3.367
97004.000			10.100			-3.367
97105.000			10.100			-3.367
97204.000			10.100			-3.367
97303.000			10.099			-3.366
97405.000			10.100			-3.367
97504.000			10.099			-3.366
97604.000			10.098			-3.366
97705.000			10.098			-3.366
97804.000			10.098			-3.366
97904.000			10.097			-3.366
98004.000			10.098			-3.366
98104.000			10.097			-3.366
98203.000			10.096			-3.365
98304.000			10.098			-3.366
98404.000			10.096			-3.365
98505.000			10.096			-3.365
98604.000			10.096			-3.365
98704.000			10.095			-3.365
98805.000			10.095			-3.365
98903.000			10.095			-3.365
99004.000			10.095			-3.365
99105.000			10.095			-3.365
99204.000			10.095			-3.365
99304.000			10.095			-3.365
99405.000			10.094			-3.365
99504.000			10.094			-3.365
99603.000			10.094			-3.365
99705.000			10.093			-3.364
99804.000			10.093			-3.364
99904.000			10.093			-3.364
100005.000			10.093			-3.364
100104.000			10.093			-3.364
100204.000			10.092			-3.364
100304.000			10.092			-3.364
100404.000			10.093			-3.364
100504.000			10.092			-3.364
100605.000			10.091			-3.364
100704.000			10.091			-3.364
100804.000			10.091			-3.364
100905.000			10.090			-3.363
101003.000			10.090			-3.363
101104.000			10.090			-3.363
101205.000			10.090			-3.363
101304.000			10.089			-3.363
101405.000			10.089			-3.363
101504.000			10.088			-3.363
101604.000			10.087			-3.362
101704.000			10.088			-3.363
101804.000			10.088			-3.363
101904.000			10.089			-3.363
102005.000			10.087			-3.362
102104.000			10.088			-3.363
102204.000			10.087			-3.362
102305.000			10.087			-3.362
102403.000			10.086			-3.362
102504.000			10.086			-3.362
102605.000			10.087			-3.362
102704.000			10.086			-3.362
102804.000			10.087			-3.362
102905.000			10.086			-3.362
103004.000			10.085			-3.362
103103.000			10.085			-3.362
103205.000			10.085			-3.362
103304.000			10.085			-3.362
103404.000			10.084			-3.361
103505.000			10.085			-3.362
103603.000			10.084			-3.361
103704.000			10.083			-3.361
103804.000			10.083			-3.361
103904.000			10.083			-3.361
104004.000			10.083			-3.361
104105.000			10.082			-3.361
104204.000			10.083			-3.361
104303.000			10.082			-3.361
104405.000			10.082			-3.361
104504.000			10.082			-3.361
104605.000			10.082			-3.361
104704.000			10.081			-3.360
104804.000			10.082			-3.361
104905.000			10.081			-3.360
105003.000			10.081			-3.360
105104.000			10.081			-3.360
105205.000			10.080			-3.360
105304.000			10.080			-3.360
105404.000			10.080			-3.360
105505.000			10.080			-3.360
105604.000			10.081			-3.360
105703.000			10.079			-3.360
105805.000			10.080			-3.360
105903.000			10.080			-3.360
106004.000			10.079			-3.360
106105.000			10.078			-3.359
106204.000			10.077			-3.359
106304.000			10.077			-3.359
106404.000			10.077			-3.359
106504.000			10.076			-3.359
106603.000			10.077			-3.359
106705.000			10.076			-3.359
106804.000			10.075			-3.358
106904.000			10.075			-3.358
107005.000			10.075			-3.358
107104.000			10.075			-3.358
107204.000			10.075			-3.358
107304.000			10.075			-3.358
107404.000			10.074			-3.358
107504.000			10.075			-3.358
107604.000			10.075			-3.358
107704.000			10.075			-3.358
107805.000			10.073			-3.358
107904.000			10.073			-3.358
108003.000			10.073			-3.358
108105.000			10.073			-3.358
108204.000			10.073			-3.358
108304.000			10.073			-3.358
108405.000			10.072			-3.357
108504.000			10.072			-3.357
108604.000			10.072			-3.357
108704.000			10.072			-3.357
108804.000			10.072			-3.357
108904.000			10.071			-3.357
109005.000			10.071			-3.357
109104.000			10.071			-3.357
109204.000			10.071			-3.357
109305.000			10.070			-3.357
109403.000			10.071			-3.357
109504.000			10.069			-3.356
109605.000			10.069			-3.356
109704.000			10.069			-3.356
109804.000			10.069			-3.356
109905.000			10.070			-3.357
110004.000			10.068			-3.356
110103.000			10.068			-3.356
110205.000			10.068			-3.356
110304.000			10.068			-3.356
110404.000			10.067			-3.356
110505.000			10.067			-3.356
110604.000			10.067			-3.356
110704.000			10.067			-3.356
110803.000			10.067			-3.356
110904.000			10.066			-3.355
111005.000			10.065			-3.355
111104.000			10.066			-3.355
111204.000			10.066			-3.355
111304.000			10.066			-3.355
111404.000			10.066			-3.355
111503.000			10.065			-3.355
111605.000			10.065			-3.355
111704.000			10.065			-3.355
111804.000			10.065			-3.355
111905.000			10.065			-3.355
112003.000			10.064			-3.355
112104.000			10.064			-3.355
112205.000			10.064			-3.355
112304.000			10.064			-3.355
112404.000			10.063			-3.354
112505.000			10.063			-3.354
112604.000			10.062			-3.354
112703.000			10.062			-3.354
112805.000			10.061			-3.354
112904.000			10.061			-3.354
113004.000			10.061			-3.354
113105.000			10.061			-3.354
113204.000			10.062			-3.354
113304.000			10.062			-3.354
113404.000			10.062			-3.354
113504.000			10.061			-3.354
113604.000			10.060			-3.353
113705.000			10.059			-3.353
113804.000			10.060			-3.353
113904.000			10.059			-3.353
114005.000			10.059			-3.353
114103.000			10.059			-3.353
114205.000			10.059			-3.353
114304.000			10.059			-3.353
114404.000			10.059			-3.353
114505.000			10.059			-3.353
114604.000			10.058			-3.353
114704.000			10.057			-3.352
114804.000			10.057			-3.352
114904.000			10.057			-3.352
115004.000			10.056			-3.352
115105.000			10.057			-3.352
115204.000			10.056			-3.352
115304.000			10.056			-3.352
115405.000			10.056			-3.352
115503.000			10.055			-3.352
115604.000			10.056			-3.352
115705.000			10.056			-3.352
115804.000			10.055			-3.352
115904.000			10.056			-3.352
116005.000			10.056			-3.352
116104.000			10.056			-3.352
116203.000			10.055			-3.352
116305.000			10.054			-3.351
116404.000			10.054			-3.351
116504.000			10.053			-3.351
116605.000			10.054			-3.351
116704.000			10.054			-3.351
116804.000			10.054			-3.351
116904.000			10.053			-3.351
117004.000			10.053			-3.351
117104.000			10.054			-3.351
117204.000			10.052			-3.351
117304.000			10.053			-3.351
117405.000			10.051			-3.350
117504.000			10.050			-3.350
117603.000			10.051			-3.350
117705.000			10.051			-3.350
117804.000			10.051			-3.350
117904.000			10.051			-3.350
118005.000			10.050			-3.350
118104.000			10.050			-3.350
118204.000			10.050			-3.350
118304.000			10.050			-3.350
118404.000			10.049			-3.350
118504.000			10.048			-3.349
118605.000			10.048			-3.349
118704.000			10.049			-3.350
118804.000			10.048			-3.349
118905.000			10.049			-3.350
119003.000			10.049			-3.350
119104.000			10.048			-3.349
119205.000			10.048			-3.349
119304.000			10.048			-3.349
119404.000			10.049			-3.350
119505.000			10.046			-3.349
119604.000			10.046			-3.349
119703.000			10.047			-3.349
119805.000			10.047			-3.349
119903.000			10.047			-3.349
120004.000			10.046			-3.349
120105.000			10.046			-3.349
120204.000			10.045			-3.348
120304.000			10.046			-3.349
120404.000			10.045			-3.348
120504.000			10.044			-3.348
120603.000			10.044			-3.348
120704.000			10.044			-3.348
120804.000			10.044			-3.348
120905.000			10.045			-3.348
121004.000			10.045			-3.348
121103.000			10.045			-3.348
121205.000			10.045			-3.348
121304.000			10.044			-3.348
121404.000			10.043			-3.348
121505.000			10.043			-3.348
121604.000			10.042			-3.347
121704.000			10.042			-3.347
121804.000			10.042			-3.347
121904.000			10.041			-3.347
122004.000			10.042			-3.347
122105.000			10.042			-3.347
122204.000			10.041			-3.347
122304.000			10.041			-3.347
122405.000			10.041			-3.347
122503.000			10.041			-3.347
122604.000			10.040			-3.347
122705.000			10.040			-3.347
122804.000			10.040			-3.347
122904.000			10.040			-3.347
123005.000			10.040			-3.347
123104.000			10.039			-3.346
123203.000			10.039			-3.346
123305.000			10.039			-3.346
123404.000			10.039			-3.346
123504.000			10.038			-3.346
123605.000			10.038			-3.346
123704.000			10.038			-3.346
123805.000			10.038			-3.346
123903.000			10.037			-3.346
124004.000			10.037			-3.346
124105.000			10.037			-3.346
124204.000			10.038			-3.346
124304.000			10.037			-3.346
124405.000			10.036			-3.345
124504.000			10.036			-3.345
124603.000			10.038			-3.346
124705.000			10.036			-3.345
124804.000			10.035			-3.345
124904.000			10.036			-3.345
125005.000			10.036			-3.345
125104.000			10.036			-3.345
125204.000			10.035			-3.345
125304.000			10.036			-3.345
125404.000			10.036			-3.345
125504.000			10.034			-3.345
125605.000			10.034			-3.345
125704.000			10.034			-3.345
125804.000			10.034			-3.345
125905.000			10.034			-3.345
126003.000			10.034			-3.345
126104.000			10.033			-3.344
126205.000			10.033			-3.344
126304.000			10.033			-3.344
126404.000			10.032			-3.344
126505.000			10.032			-3.344
126604.000			10.032			-3.344
126703.000			10.033			-3.344
126805.000			10.032			-3.344
126904.000			10.031			-3.344
127005.000			10.031			-3.344
127104.000			10.032			-3.344
127204.000			10.031			-3.344
127305.000			10.031			-3.344
127403.000			10.031			-3.344
127504.000			10.030			-3.343
127605.000			10.030			-3.343
127704.000			10.031			-3.344
127804.000			10.031			-3.344
127905.000			10.031			-3.344
128004.000			10.030			-3.343
128103.000			10.030			-3.343
128205.000			10.029			-3.343
128304.000			10.029			-3.343
128404.000			10.028			-3.343
128505.000			10.028			-3.343
128604.000			10.029			-3.343
128704.000			10.029			-3.343
128804.000			10.030			-3.343
128904.000			10.029			-3.343
129004.000			10.028			-3.343
129105.000			10.027			-3.342
129204.000			10.027			-3.342
129304.000			10.026			-3.342
129405.000			10.027			-3.342
129503.000			10.027			-3.342
129604.000			10.028			-3.343
129705.000			10.027			-3.342
129804.000			10.026			-3.342
129904.000			10.026			-3.342
130004.000			10.026			-3.342
130104.000			10.025			-3.342
130203.000			10.024			-3.341
130304.000			10.025			-3.342
130404.000			10.024			-3.341
130505.000			10.023			-3.341
130604.000			10.024			-3.341
130703.000			10.024			-3.341
130805.000			10.024			-3.341
130904.000			10.023			-3.341
131004.000			10.024			-3.341
131105.000			10.024			-3.341
131204.000			10.023			-3.341
131304.000			10.023			-3.341
131404.000			10.023			-3.341
131504.000			10.023			-3.341
131604.000			10.022			-3.341
131705.000			10.022			-3.341
131804.000			10.021			-3.340
131904.000			10.022			-3.341
132005.000			10.023			-3.341
132104.000			10.022			-3.341
132204.000			10.021			-3.340
132304.000			10.021			-3.340
132404.000			10.021			-3.340
132504.000			10.021			-3.340
132605.000			10.021			-3.340
132704.000			10.021			-3.340
132804.000			10.021			-3.340
132905.000			10.021			-3.340
133003.000			10.019			-3.340
133104.000			10.019			-3.340
133205.000			10.019			-3.340
133304.000			10.019			-3.340
133405.000			10.020			-3.340
133504.000			10.019			-3.340
133604.000			10.018			-3.339
133704.000			10.019			-3.340
133804.000			10.018			-3.339
133904.000			10.017			-3.339
134005.000			10.018			-3.339
134104.000			10.018			-3.339
134204.000			10.017			-3.339
134305.000			10.017			-3.339
134404.000			10.017			-3.339
134504.000			10.018			-3.339
134604.000			10.018			-3.339
134704.000			10.017			-3.339
134804.000			10.017			-3.339
134905.000			10.016			-3.339
135004.000			10.015			-3.338
135104.000			10.015			-3.338
135205.000			10.015			-3.338
135303.000			10.014			-3.338
135404.000			10.015			-3.338
135505.000			10.015			-3.338
135604.000			10.015			-3.338
135704.000			10.015			-3.338
135805.000			10.016			-3.339
135904.000			10.015			-3.338
136003.000			10.015			-3.338
136105.000			10.014			-3.338
136204.000			10.014			-3.338
136304.000			10.015			-3.338
136405.000			10.014			-3.338
136504.000			10.014			-3.338
136605.000			10.013			-3.338
136704.000			10.013			-3.338
136804.000			10.013			-3.338
136904.000			10.013			-3.338
137004.000			10.012			-3.337
137104.000			10.012			-3.337
137205.000			10.012			-3.337
137304.000			10.011			-3.337
137404.000			10.011			-3.337
137505.000			10.012			-3.337
137603.000			10.011			-3.337
137704.000			10.012			-3.337
137805.000			10.011			-3.337
137904.000			10.010			-3.337
138004.000			10.010			-3.337
138105.000			10.010			-3.337
138204.000			10.011			-3.337
138304.000			10.010			-3.337
138405.000			10.009			-3.336
138503.000			10.010			-3.337
138604.000			10.010			-3.337
138705.000			10.009			-3.336
138804.000			10.008			-3.336
138904.000			10.008			-3.336
139005.000			10.009			-3.336
139104.000			10.009			-3.336
139203.000			10.008			-3.336
139305.000			10.008			-3.336
139403.000			10.007			-3.336
139504.000			10.007			-3.336
139605.000			10.007			-3.336
139704.000			10.008			-3.336
139805.000			10.007			-3.336
139904.000			10.007			-3.336
140004.000			10.006			-3.335
140104.000			10.006			-3.335
140204.000			10.007			-3.336
140304.000			10.007			-3.336
140405.000			10.006			-3.335
140504.000			10.005			-3.335
140604.000			10.006			-3.335
140705.000			10.006			-3.335
140803.000			10.005			-3.335
140904.000			10.005			-3.335
141004.000			10.005			-3.335
141104.000			10.006			-3.335
141204.000			10.005			-3.335
141305.000			10.005			-3.335
141404.000			10.005			-3.335
141504.000			10.004			-3.335
141605.000			10.004			-3.335
141703.000			10.004			-3.335
141804.000			10.004			-3.335
141905.000			10.004			-3.335
142004.000			10.005			-3.335
142104.000			10.004			-3.335
142205.000			10.005			-3.335
142304.000			10.005			-3.335
142403.000			10.005			-3.335
142505.000			10.003			-3.334
142604.000			10.002			-3.334
142704.000			10.003			-3.334
142805.000			10.003			-3.334
142904.000			10.002			-3.334
143005.000			10.002			-3.334
143103.000			10.002			-3.334
143204.000			10.003			-3.334
143305.000			10.003			-3.334
143404.000			10.003			-3.334
143504.000			10.003			-3.334
143605.000			10.003			-3.334
143704.000			10.002			-3.334
143803.000			10.001			-3.334
143905.000			10.000			-3.333
144004.000			10.000			-3.333
144104.000			10.000			-3.333
144205.000			10.001			-3.334
144304.000			10.000			-3.333
144404.000			9.998			-3.333
144505.000			9.999			-3.333
144604.000			9.999			-3.333
144703.000			10.000			-3.333
144805.000			10.000			-3.333
144904.000			9.999			-3.333
145004.000			9.998			-3.333
145105.000			9.998			-3.333
145204.000			9.998			-3.333
145304.000			9.998			-3.333
145405.000			9.998			-3.333
145504.000			9.998			-3.333
145603.000			9.997			-3.332
145705.000			9.997			-3.332
145803.000			9.997			-3.332
145904.000			9.997			-3.332
146005.000			9.997			-3.332
146104.000			9.996			-3.332
146205.000			9.996			-3.332
146304.000			9.996			-3.332
146404.000			9.996			-3.332
146505.000			9.996			-3.332
146604.000			9.995			-3.332
146703.000			9.994			-3.331
146805.000			9.996			-3.332
146903.000			9.996			-3.332
147004.000			9.995			-3.332
147105.000			9.994			-3.331
147204.000			9.995			-3.332
147304.000			9.994			-3.331
147405.000			9.994			-3.331
147504.000			9.994			-3.331
147603.000			9.993			-3.331
147705.000			9.993			-3.331
147803.000			9.994			-3.331
147904.000			9.993			-3.331
148005.000			9.993			-3.331
148104.000			9.992			-3.331
148204.000			9.992			-3.331
148305.000			9.992			-3.331
148404.000			9.992			-3.331
148504.000			9.992			-3.331
148605.000			9.992			-3.331
148703.000			9.990			-3.330
148804.000			9.991			-3.330
148905.000			9.991			-3.330
149004.000			9.991			-3.330
149104.000			9.991			-3.330
149204.000			9.991			-3.330
149304.000			9.991			-3.330
149405.000			9.990			-3.330
149504.000			9.990			-3.330
149603.000			9.990			-3.330
149705.000			9.989			-3.330
149803.000			9.990			-3.330
149904.000			9.990			-3.330
150005.000			9.989			-3.330
150104.000			9.989			-3.330
150204.000			9.988			-3.329
150305.000			9.989			-3.330
150404.000			9.988			-3.329
150504.000			9.987			-3.329
150605.000			9.988			-3.329
150703.000			9.988			-3.329
150804.000			9.988			-3.329
150905.000			9.987			-3.329
151004.000			9.988			-3.329
151104.000			9.988			-3.329
151205.000			9.988			-3.329
151304.000			9.986			-3.329
151404.000			9.987			-3.329
151505.000			9.987			-3.329
151603.000			9.987			-3.329
151704.000			9.986			-3.329
151805.000			9.987			-3.329
151904.000			9.987			-3.329
152004.000			9.986			-3.329
152105.000			9.986			-3.329
152204.000			9.986			-3.329
152304.000			9.985			-3.328
152405.000			9.985			-3.328
152504.000			9.985			-3.328
152605.000			9.985			-3.328
152703.000			9.985			-3.328
152804.000			9.984			-3.328
152905.000			9.984			-3.328
153004.000			9.984			-3.328
153104.000			9.985			-3.328
153205.000			9.985			-3.328
153304.000			9.984			-3.328
153404.000			9.984			-3.328
153505.000			9.984			-3.328
153603.000			9.985			-3.328
153704.000			9.984			-3.328
153805.000			9.983			-3.328
153904.000			9.984			-3.328
154004.000			9.984			-3.328
154105.000			9.984			-3.328
154204.000			9.984			-3.328
154304.000			9.983			-3.328
154405.000			9.983			-3.328
154503.000			9.983			-3.328
154604.000			9.982			-3.327
154705.000			9.981			-3.327
154804.000			9.982			-3.327
154904.000			9.981			-3.327
155005.000			9.981			-3.327
155104.000			9.982			-3.327
155204.000			9.982			-3.327
155305.000			9.981			-3.327
155403.000			9.982			-3.327
155504.000			9.981			-3.327
155605.000			9.981			-3.327
155704.000			9.980			-3.327
155805.000			9.981			-3.327
155904.000			9.981			-3.327
156004.000			9.980			-3.327
156105.000			9.979			-3.326
156204.000			9.979			-3.326
156303.000			9.979			-3.326
156405.000			9.980			-3.327
156503.000			9.979			-3.326
156604.000			9.980			-3.327
156705.000			9.979			-3.326
156804.000			9.979			-3.326
156904.000			9.979			-3.326
157005.000			9.977			-3.326
157104.000			9.978			-3.326
157204.000			9.977			-3.326
157305.000			9.978			-3.326
157403.000			9.978			-3.326
157504.000			9.977			-3.326
157605.000			9.975			-3.325
157704.000			9.977			-3.326
157804.000			9.977			-3.326
157905.000			9.977			-3.326
158004.000			9.976			-3.325
158104.000			9.975			-3.325
158205.000			9.976			-3.325
158303.000			9.976			-3.325
158404.000			9.975			-3.325
158504.000			9.975			-3.325
158604.000			9.975			-3.325
158704.000			9.975			-3.325
158804.000			9.974			-3.325
158904.000			9.975			-3.325
159005.000			9.975			-3.325
159104.000			9.976			-3.325
159204.000			9.975			-3.325
159305.000			9.975			-3.325
159403.000			9.975			-3.325
159504.000			9.974			-3.325
159604.000			9.974			-3.325
159704.000			9.974			-3.325
159804.000			9.974			-3.325
159905.000			9.973			-3.324
160004.000			9.973			-3.324
160104.000			9.973			-3.324
160205.000			9.973			-3.324
160304.000			9.972			-3.324
160404.000			9.973			-3.324
160504.000			9.973			-3.324
160604.000			9.973			-3.324
160704.000			9.972			-3.324
160805.000			9.972			-3.324
160904.000			9.972			-3.324
161004.000			9.972			-3.324
161105.000			9.971			-3.324
161204.000			9.971			-3.324
161304.000			9.971			-3.324
161404.000			9.971			-3.324
161504.000			9.970			-3.323
161604.000			9.970			-3.323
161705.000			9.971			-3.324
161804.000			9.970			-3.323
161904.000			9.971			-3.324
162005.000			9.970			-3.323
162104.000			9.969			-3.323
162205.000			9.969			-3.323
162303.000			9.969			-3.323
162404.000			9.968			-3.323
162505.000			9.969			-3.323
162604.000			9.969			-3.323
162704.000			9.970			-3.323
162805.000			9.969			-3.323
162904.000			9.969			-3.323
163004.000			9.969			-3.323
163105.000			9.969			-3.323
163203.000			9.969			-3.323
163304.000			9.969			-3.323
163404.000			9.969			-3.323
163504.000			9.969			-3.323
163604.000			9.969			-3.323
163705.000			9.968			-3.323
163804.000			9.968			-3.323
163904.000			9.969			-3.323
164005.000			9.969			-3.323
164104.000			9.969			-3.323
164204.000			9.968			-3.323
164304.000			9.967			-3.322
164404.000			9.967			-3.322
164504.000			9.968			-3.323
164605.000			9.967			-3.322
164704.000			9.968			-3.323
164804.000			9.968			-3.323
164905.000			9.967			-3.322
165004.000			9.967			-3.322
165104.000			9.967			-3.322
165203.000			9.967			-3.322
165304.000			9.966			-3.322
165403.000			9.965			-3.322
165504.000			9.966			-3.322
165604.000			9.965			-3.322
165705.000			9.965			-3.322
165804.000			9.966			-3.322
165904.000			9.966			-3.322
166005.000			9.966			-3.322
166104.000			9.965			-3.322
166204.000			9.965			-3.322
166304.000			9.965			-3.322
166404.000			9.965			-3.322
166504.000			9.964			-3.321
166605.000			9.964			-3.321
166704.000			9.964			-3.321
166804.000			9.963			-3.321
166905.000			9.962			-3.321
167004.000			9.962			-3.321
167104.000			9.963			-3.321
167204.000			9.962			-3.321
167304.000			9.962			-3.321
167403.000			9.962			-3.321
167505.000			9.962			-3.321
167604.000			9.961			-3.320
167704.000			9.961			-3.320
167805.000			9.961			-3.320
167904.000			9.962			-3.321
168004.000			9.961			-3.320
168104.000			9.959			-3.320
168204.000			9.960			-3.320
168303.000			9.960			-3.320
168405.000			9.960			-3.320
168504.000			9.960			-3.320
168605.000			9.959			-3.320
168704.000			9.960			-3.320
168804.000			9.960			-3.320
168905.000			9.960			-3.320
169004.000			9.959			-3.320
169104.000			9.958			-3.319
169204.000			9.958			-3.319
169304.000			9.958			-3.319
169403.000			9.958			-3.319
169505.000			9.958			-3.319
169604.000			9.958			-3.319
169704.000			9.958			-3.319
169805.000			9.958			-3.319
169904.000			9.958			-3.319
170004.000			9.959			-3.320
170105.000			9.959			-3.320
170204.000			9.958			-3.319
170303.000			9.957			-3.319
170405.000			9.957			-3.319
170504.000			9.957			-3.319
170604.000			9.958			-3.319
170705.000			9.958			-3.319
170804.000			9.959			-3.320
170904.000			9.958			-3.319
171005.000			9.957			-3.319
171104.000			9.956			-3.319
171203.000			9.957			-3.319
171305.000			9.957			-3.319
171404.000			9.957			-3.319
171504.000			9.957			-3.319
171605.000			9.957			-3.319
171704.000			9.956			-3.319
171805.000			9.957			-3.319
171904.000			9.956			-3.319
172004.000			9.956			-3.319
172104.000			9.956			-3.319
172204.000			9.955			-3.318
172303.000			9.955			-3.318
172405.000			9.955			-3.318
172504.000			9.955			-3.318
172604.000			9.955			-3.318
172705.000			9.956			-3.319
172804.000			9.954			-3.318
172904.000			9.952			-3.317
173005.000			9.953			-3.318
173104.000			9.954			-3.318
173203.000			9.954			-3.318
173305.000			9.954			-3.318
173404.000			9.954			-3.318
173504.000			9.953			-3.318
173605.000			9.952			-3.317
173704.000			9.952			-3.317
173804.000			9.953			-3.318
173905.000			9.954			-3.318
174004.000			9.953			-3.318
174103.000			9.951			-3.317
174205.000			9.952			-3.317
174304.000			9.952			-3.317
174404.000			9.951			-3.317
174505.000			9.950			-3.317
174604.000			9.950			-3.317
174704.000			9.950			-3.317
174804.000			9.950			-3.317
174904.000			9.950			-3.317
175003.000			9.950			-3.317
175104.000			9.950			-3.317
175203.000			9.950			-3.317
175305.000			9.950			-3.317
175404.000			9.949			-3.316
175504.000			9.949			-3.316
175605.000			9.949			-3.316
175704.000			9.950			-3.317
175804.000			9.948			-3.316
175904.000			9.948			-3.316
176004.000			9.949			-3.316
176103.000			9.949			-3.316
176205.000			9.948			-3.316
176304.000			9.948			-3.316
176404.000			9.948			-3.316
176505.000			9.948			-3.316
176604.000			9.947			-3.316
176704.000			9.947			-3.316
176805.000			9.947			-3.316
176904.000			9.946			-3.315
177003.000			9.946			-3.315
177105.000			9.947			-3.316
177204.000			9.947			-3.316
177304.000			9.947			-3.316
177405.000			9.947			-3.316
177504.000			9.946			-3.315
177604.000			9.945			-3.315
177705.000			9.945			-3.315
177804.000			9.947			-3.316
177903.000			9.946			-3.315
178005.000			9.946			-3.315
178103.000			9.946			-3.315
178205.000			9.945			-3.315
178304.000			9.945			-3.315
178404.000			9.945			-3.315
178505.000			9.946			-3.315
178604.000			9.944			-3.315
178704.000			9.944			-3.315
178805.000			9.944			-3.315
178904.000			9.943			-3.314
179003.000			9.943			-3.314
179105.000			9.943			-3.314
179204.000			9.944			-3.315
179304.000			9.942			-3.314
179405.000			9.943			-3.314
179504.000			9.943			-3.314
179604.000			9.943			-3.314
179705.000			9.943			-3.314
179804.000			9.942			-3.314
179903.000			9.943			-3.314
180005.000			9.942			-3.314
180103.000			9.942			-3.314
180204.000			9.942			-3.314
180305.000			9.942			-3.314
180404.000			9.941			-3.314
180504.000			9.941			-3.314
180605.000			9.941			-3.314
180704.000			9.941			-3.314
180803.000			9.941			-3.314
180905.000			9.942			-3.314
181004.000			9.942			-3.314
181104.000			9.941			-3.314
181205.000			9.942			-3.314
181304.000			9.941			-3.314
181405.000			9.940			-3.313
181504.000			9.940			-3.313
181604.000			9.939			-3.313
181704.000			9.940			-3.313
181804.000			9.941			-3.314
181903.000			9.941			-3.314
182005.000			9.939			-3.313
182104.000			9.938			-3.313
182204.000			9.940			-3.313
182305.000			9.939			-3.313
182404.000			9.939			-3.313
182504.000			9.939			-3.313
182604.000			9.938			-3.313
182704.000			9.937			-3.312
182803.000			9.938			-3.313
182905.000			9.938			-3.313
183004.000			9.938			-3.313
183104.000			9.939			-3.313
183205.000			9.939			-3.313
183304.000			9.939			-3.313
183404.000			9.938			-3.313
183504.000			9.938			-3.313
183604.000			9.937			-3.312
183703.000			9.936			-3.312
183805.000			9.937			-3.312
183904.000			9.938			-3.313
184004.000			9.936			-3.312
184105.000			9.936			-3.312
184204.000			9.936			-3.312
184304.000			9.937			-3.312
184404.000			9.936			-3.312
184504.000			9.936			-3.312
184603.000			9.936			-3.312
184704.000			9.936			-3.312
184804.000			9.935			-3.312
184905.000			9.936			-3.312
185004.000			9.936			-3.312
185104.000			9.936			-3.312
185205.000			9.935			-3.312
185304.000			9.935			-3.312
185404.000			9.934			-3.311
185504.000			9.933			-3.311
185604.000			9.934			-3.311
185704.000			9.934			-3.311
185805.000			9.935			-3.312
185904.000			9.934			-3.311
186004.000			9.934			-3.311
186105.000			9.934			-3.311
186204.000			9.933			-3.311
186304.000			9.933			-3.311
186404.000			9.933			-3.311
186504.000			9.933			-3.311
186603.000			9.933			-3.311
186705.000			9.933			-3.311
186804.000			9.932			-3.311
186904.000			9.933			-3.311
187005.000			9.932			-3.311
187104.000			9.932			-3.311
187204.000			9.932			-3.311
187304.000			9.932			-3.311
187404.000			9.931			-3.310
187503.000			9.932			-3.311
187605.000			9.932			-3.311
187704.000			9.931			-3.310
187805.000			9.931			-3.310
187904.000			9.931			-3.310
188004.000			9.932			-3.311
188105.000			9.931			-3.310
188204.000			9.931			-3.310
188304.000			9.930			-3.310
188404.000			9.930			-3.310
188504.000			9.929			-3.310
188604.000			9.929			-3.310
188705.000			9.930			-3.310
188804.000			9.929			-3.310
188904.000			9.929			-3.310
189005.000			9.929			-3.310
189104.000			9.928			-3.309
189204.000			9.929			-3.310
189304.000			9.929			-3.310
189404.000			9.929			-3.310
189503.000			9.929			-3.310
189605.000			9.928			-3.309
189704.000			9.928			-3.309
189804.000			9.928			-3.309
189905.000			9.928			-3.309
190004.000			9.928			-3.309
190104.000			9.928			-3.309
190205.000			9.928			-3.309
190304.000			9.928			-3.309
190403.000			9.927			-3.309
190505.000			9.926			-3.309
190604.000			9.926			-3.309
190704.000			9.926			-3.309
190805.000			9.927			-3.309
190904.000			9.926			-3.309
191005.000			9.926			-3.309
191104.000			9.926			-3.309
191204.000			9.927			-3.309
191304.000			9.927			-3.309
191404.000			9.926			-3.309
191504.000			9.925			-3.308
191605.000			9.926			-3.309
191704.000			9.926			-3.309
191804.000			9.926			-3.309
191905.000			9.926			-3.309
192004.000			9.925			-3.308
192104.000			9.925			-3.308
192204.000			9.926			-3.309
192304.000			9.926			-3.309
192403.000			9.925			-3.308
192505.000			9.925			-3.308
192604.000			9.925			-3.308
192704.000			9.925			-3.308
192805.000			9.924			-3.308
192904.000			9.923			-3.308
193004.000			9.923			-3.308
193104.000			9.924			-3.308
193204.000			9.924			-3.308
193303.000			9.923			-3.308
193405.000			9.923			-3.308
193504.000			9.923			-3.308
193604.000			9.924			-3.308
193705.000			9.923			-3.308
193804.000			9.923			-3.308
193904.000			9.923			-3.308
194004.000			9.923			-3.308
194104.000			9.923			-3.308
194203.000			9.922			-3.307
194304.000			9.922			-3.307
194404.000			9.922			-3.307
194505.000			9.922			-3.307
194604.000			9.921			-3.307
194704.000			9.922			-3.307
194805.000			9.922			-3.307
194903.000			9.922			-3.307
195004.000			9.923			-3.308
195104.000			9.922			-3.307
195204.000			9.921			-3.307
195304.000			9.921			-3.307
195405.000			9.921			-3.307
195504.000			9.921			-3.307
195604.000			9.921			-3.307
195705.000			9.920			-3.307
195804.000			9.921			-3.307
195904.000			9.921			-3.307
196004.000			9.920			-3.307
196104.000			9.921			-3.307
196204.000			9.920			-3.307
196305.000			9.920			-3.307
196404.000			9.921			-3.307
196504.000			9.921			-3.307
196605.000			9.919			-3.306
196704.000			9.919			-3.306
196804.000			9.920			-3.307
196904.000			9.920			-3.307
197004.000			9.919			-3.306
197104.000			9.920			-3.307
197204.000			9.918			-3.306
197304.000			9.918			-3.306
197405.000			9.919			-3.306
197504.000			9.918			-3.306
197604.000			9.918			-3.306
197705.000			9.919			-3.306
197803.000			9.919			-3.306
197904.000			9.918			-3.306
198004.000			9.918			-3.306
198104.000			9.917			-3.306
198204.000			9.918			-3.306
198305.000			9.917			-3.306
198404.000			9.916			-3.305
198504.000			9.917			-3.306
198605.000			9.916			-3.305
198704.000			9.917			-3.306
198804.000			9.918			-3.306
198904.000			9.917			-3.306
199004.000			9.917			-3.306
199103.000			9.916			-3.305
199205.000			9.916			-3.305
199304.000			9.915			-3.305
199404.000			9.915			-3.305
199505.000			9.916			-3.305
199604.000			9.916			-3.305
199704.000			9.916			-3.305
199805.000			9.915			-3.305
199904.000			9.915			-3.305
200003.000			9.915			-3.305
200105.000			9.914			-3.305
200204.000			9.914			-3.305
200304.000			9.915			-3.305
200405.000			9.914			-3.305
200504.000			9.913			-3.304
200605.000			9.914			-3.305
200704.000			9.914			-3.305
200804.000			9.914			-3.305
200904.000			9.913			-3.304
201004.000			9.914			-3.305
201104.000			9.914			-3.305
201205.000			9.913			-3.304
201304.000			9.913			-3.304
201404.000			9.913			-3.304
201505.000			9.914			-3.305
201603.000			9.913			-3.304
201704.000			9.912			-3.304
201804.000			9.913			-3.304
201904.000			9.913			-3.304
202004.000			9.911			-3.304
202105.000			9.912			-3.304
202204.000			9.912			-3.304
202304.000			9.912			-3.304
202405.000			9.912			-3.304
202503.000			9.911			-3.304
202604.000			9.912			-3.304
202705.000			9.911			-3.304
202804.000			9.912			-3.304
202904.000			9.912			-3.304
203005.000			9.910			-3.303
203104.000			9.911			-3.304
203204.000			9.911			-3.304
203305.000			9.911			-3.304
203403.000			9.910			-3.303
203504.000			9.911			-3.304
203605.000			9.910			-3.303
203704.000			9.909			-3.303
203805.000			9.910			-3.303
203904.000			9.910			-3.303
204004.000			9.909			-3.303
204104.000			9.909			-3.303
204204.000			9.909			-3.303
204303.000			9.910			-3.303
204405.000			9.910			-3.303
204504.000			9.909			-3.303
204604.000			9.909			-3.303
204705.000			9.909			-3.303
204804.000			9.909			-3.303
204904.000			9.909			-3.303
205004.000			9.909			-3.303
205104.000			9.909			-3.303
205203.000			9.908			-3.303
205305.000			9.908			-3.303
205404.000			9.907			-3.302
205504.000			9.908			-3.303
205605.000			9.908			-3.303
205704.000			9.908			-3.303
205804.000			9.907			-3.302
205904.000			9.909			-3.303
206004.000			9.909			-3.303
206103.000			9.908			-3.303
206205.000			9.907			-3.302
206304.000			9.907			-3.302
206404.000			9.907			-3.302
206505.000			9.907			-3.302
206604.000			9.906			-3.302
206704.000			9.907			-3.302
206803.000			9.907			-3.302
206904.000			9.905			-3.302
207003.000			9.906			-3.302
207104.000			9.906			-3.302
207204.000			9.906			-3.302
207305.000			9.906			-3.302
207404.000			9.906			-3.302
207504.000			9.906			-3.302
207605.000			9.906			-3.302
207703.000			9.906			-3.302
207804.000			9.905			-3.302
207905.000			9.905			-3.302
208004.000			9.904			-3.301
208104.000			9.904			-3.301
208205.000			9.905			-3.302
208304.000			9.905			-3.302
208404.000			9.904			-3.301
208505.000			9.904			-3.301
208603.000			9.903			-3.301
208704.000			9.904			-3.301
208805.000			9.903			-3.301
208904.000			9.903			-3.301
209004.000			9.902			-3.301
209105.000			9.902			-3.301
209204.000			9.903			-3.301
209304.000			9.903			-3.301
209405.000			9.903			-3.301
209503.000			9.903			-3.301
209604.000			9.903			-3.301
209705.000			9.903			-3.301
209804.000			9.903			-3.301
209904.000			9.902			-3.301
210004.000			9.903			-3.301
210104.000			9.901			-3.300
210205.000			9.901			-3.300
210304.000			9.902			-3.301
210403.000			9.902			-3.301
210505.000			9.901			-3.300
210604.000			9.901			-3.300
210704.000			9.901			-3.300
210805.000			9.901			-3.300
210904.000			9.900			-3.300
211004.000			9.900			-3.300
211104.000			9.901			-3.300
211204.000			9.900			-3.300
211304.000			9.900			-3.300
211405.000			9.900			-3.300
211504.000			9.900			-3.300
211604.000			9.900			-3.300
211705.000			9.900			-3.300
211804.000			9.900			-3.300
211904.000			9.900			-3.300
212004.000			9.900			-3.300
212104.000			9.900			-3.300
212204.000			9.899			-3.300
212305.000			9.900			-3.300
212404.000			9.900			-3.300
212504.000			9.900			-3.300
212605.000			9.898			-3.299
212704.000			9.898			-3.299
212804.000			9.899			-3.300
212904.000			9.898			-3.299
213004.000			9.898			-3.299
213104.000			9.899			-3.300
213204.000			9.899			-3.300
213304.000			9.898			-3.299
213405.000			9.899			-3.300
213504.000			9.898			-3.299
213604.000			9.896			-3.299
213705.000			9.896			-3.299
213803.000			9.897			-3.299
213904.000			9.896			-3.299
214004.000			9.896			-3.299
214104.000			9.897			-3.299
214204.000			9.897			-3.299
214305.000			9.897			-3.299
214404.000			9.896			-3.299
214504.000			9.896			-3.299
214605.000			9.896			-3.299
214704.000			9.897			-3.299
214804.000			9.897			-3.299
214904.000			9.897			-3.299
215004.000			9.896			-3.299
215104.000			9.894			-3.298
215205.000			9.895			-3.298
215304.000			9.895			-3.298
215404.000			9.894			-3.298
215505.000			9.895			-3.298
215604.000			9.896			-3.299
215704.000			9.895			-3.298
215804.000			9.895			-3.298
215904.000			9.895			-3.298
216004.000			9.894			-3.298
216105.000			9.893			-3.298
216204.000			9.894			-3.298
216304.000			9.894			-3.298
216405.000			9.894			-3.298
216504.000			9.894			-3.298
216605.000			9.894			-3.298
216703.000			9.894			-3.298
216804.000			9.893			-3.298
216904.000			9.893			-3.298
217004.000			9.893			-3.298
217104.000			9.894			-3.298
217205.000			9.893			-3.298
217304.000			9.893			-3.298
217404.000			9.893			-3.298
217505.000			9.892			-3.297
217603.000			9.892			-3.297
217704.000			9.893			-3.298
217804.000			9.893			-3.298
217904.000			9.893			-3.298
218004.000			9.893			-3.298
218105.000			9.892			-3.297
218204.000			9.892			-3.297
218304.000			9.893			-3.298
218405.000			9.893			-3.298
218503.000			9.892			-3.297
218604.000			9.892			-3.297
218704.000			9.891			-3.297
218804.000			9.891			-3.297
218904.000			9.891			-3.297
219005.000			9.893			-3.298
219104.000			9.892			-3.297
219204.000			9.892			-3.297
219305.000			9.892			-3.297
219404.000			9.891			-3.297
219504.000			9.890			-3.297
219603.000			9.891			-3.297
219704.000			9.892			-3.297
219805.000			9.890			-3.297
219904.000			9.891			-3.297
220004.000			9.890			-3.297
220105.000			9.889			-3.296
220204.000			9.889			-3.296
220304.000			9.889			-3.296
220405.000			9.889			-3.296
220503.000			9.890			-3.297
220604.000			9.890			-3.297
220705.000			9.890			-3.297
220804.000			9.890			-3.297
220904.000			9.888			-3.296
221005.000			9.889			-3.296
221104.000			9.889			-3.296
221204.000			9.888			-3.296
221305.000			9.888			-3.296
221403.000			9.889			-3.296
221504.000			9.889			-3.296
221605.000			9.888			-3.296
221704.000			9.889			-3.296
221804.000			9.888			-3.296
221905.000			9.888			-3.296
222004.000			9.888			-3.296
222104.000			9.888			-3.296
222205.000			9.887			-3.296
222303.000			9.888			-3.296
222404.000			9.887			-3.296
222505.000			9.887			-3.296
222604.000			9.887			-3.296
222704.000			9.887			-3.296
222804.000			9.886			-3.295
222904.000			9.886			-3.295
223005.000			9.886			-3.295
223104.000			9.887			-3.296
223203.000			9.885			-3.295
223305.000			9.886			-3.295
223404.000			9.886			-3.295
223504.000			9.886			-3.295
223605.000			9.886			-3.295
223704.000			9.885			-3.295
223804.000			9.885			-3.295
223905.000			9.885			-3.295
224004.000			9.886			-3.295
224103.000			9.886			-3.295
224205.000			9.886			-3.295
224303.000			9.885			-3.295
224404.000			9.885			-3.295
224505.000			9.884			-3.295
224604.000			9.885			-3.295
224704.000			9.884			-3.295
224805.000			9.884			-3.295
224904.000			9.884			-3.295
225004.000			9.884			-3.295
225105.000			9.884			-3.295
225203.000			9.885			-3.295
225304.000			9.884			-3.295
225405.000			9.883			-3.294
225504.000			9.882			-3.294
225604.000			9.882			-3.294
225705.000			9.883			-3.294
225804.000			9.883			-3.294
225904.000			9.883			-3.294
226005.000			9.882			-3.294
226103.000			9.883			-3.294
226205.000			9.883			-3.294
226304.000			9.883			-3.294
226404.000			9.882			-3.294
226505.000			9.883			-3.294
226604.000			9.883			-3.294
226704.000			9.883			-3.294
226805.000			9.883			-3.294
226904.000			9.882			-3.294
227003.000			9.883			-3.294
227105.000			9.883			-3.294
227204.000			9.883			-3.294
227304.000			9.883			-3.294
227405.000			9.883			-3.294
227504.000			9.884			-3.295
227604.000			9.885			-3.295
227705.000			9.885			-3.295
227804.000			9.884			-3.295
227903.000			9.885			-3.295
228005.000			9.884			-3.295
228103.000			9.884			-3.295
228204.000			9.884			-3.295
228305.000			9.885			-3.295
228404.000			9.886			-3.295
228504.000			9.885			-3.295
228605.000			9.884			-3.295
228704.000			9.884			-3.295
228803.000			9.884			-3.295
228905.000			9.886			-3.295
229003.000			9.886			-3.295
229104.000			9.885			-3.295
229205.000			9.886			-3.295
229304.000			9.885			-3.295
229405.000			9.885			-3.295
229504.000			9.886			-3.295
229604.000			9.886			-3.295
229705.000			9.885			-3.295
229804.000			9.884			-3.295
229903.000			9.884			-3.295
230005.000			9.884			-3.295
230104.000			9.884			-3.295
230204.000			9.884			-3.295
230305.000			9.884			-3.295
230404.000			9.884			-3.295
230504.000			9.884			-3.295
230605.000			9.884			-3.295
230704.000			9.884			-3.295
230803.000			9.884			-3.295
230905.000			9.885			-3.295
231004.000			9.885			-3.295
231104.000			9.884			-3.295
231205.000			9.883			-3.294
231304.000			9.884			-3.295
231404.000			9.884			-3.295
231505.000			9.885			-3.295
231604.000			9.885			-3.295
231703.000			9.883			-3.294
231805.000			9.882			-3.294
231903.000			9.882			-3.294
232004.000			9.882			-3.294
232105.000			9.882			-3.294
232204.000			9.882			-3.294
232304.000			9.880			-3.293
232404.000			9.881			-3.294
232504.000			9.881			-3.294
232603.000			9.882			-3.294
232704.000			9.880			-3.293
232803.000			9.880			-3.293
232905.000			9.881			-3.294
233004.000			9.881			-3.294
233104.000			9.881			-3.294
233205.000			9.881			-3.294
233304.000			9.880			-3.293
233404.000			9.880			-3.293
233504.000			9.879			-3.293
233604.000			9.879			-3.293
233703.000			9.879			-3.293
233805.000			9.879			-3.293
233904.000			9.880			-3.293
234004.000			9.880			-3.293
234105.000			9.879			-3.293
234204.000			9.879			-3.293
234304.000			9.879			-3.293
234405.000			9.879			-3.293
234504.000			9.879			-3.293
234603.000			9.879			-3.293
234705.000			9.879			-3.293
234804.000			9.878			-3.293
234904.000			9.878			-3.293
235005.000			9.879			-3.293
235104.000			9.878			-3.293
235204.000			9.880			-3.293
235305.000			9.880			-3.293
235404.000			9.880			-3.293
235503.000			9.878			-3.293
235605.000			9.879			-3.293
235703.000			9.879			-3.293
235805.000			9.878			-3.293
235904.000			9.878			-3.293
236004.000			9.878			-3.293
236105.000			9.879			-3.293
236204.000			9.878			-3.293
236304.000			9.879			-3.293
236405.000			9.879			-3.293
236504.000			9.878			-3.293
236603.000			9.878			-3.293
236705.000			9.878			-3.293
236804.000			9.878			-3.293
236904.000			9.878			-3.293
237005.000			9.878			-3.293
237104.000			9.878			-3.293
237204.000			9.877			-3.292
237305.000			9.877			-3.292
237404.000			9.878			-3.293
237503.000			9.878			-3.293
237605.000			9.877			-3.292
237703.000			9.876			-3.292
237804.000			9.876			-3.292
237905.000			9.876			-3.292
238004.000			9.875			-3.292
238104.000			9.875			-3.292
238205.000			9.873			-3.291
238304.000			9.874			-3.291
238404.000			9.874			-3.291
238505.000			9.873			-3.291
238603.000			9.874			-3.291
238704.000			9.874			-3.291
238805.000			9.874			-3.291
238904.000			9.874			-3.291
239005.000			9.875			-3.292
239104.000			9.874			-3.291
239204.000			9.873			-3.291
239305.000			9.873			-3.291
239404.000			9.874			-3.291
239503.000			9.873			-3.291
239605.000			9.872			-3.291
239703.000			9.872			-3.291
239804.000			9.871			-3.290
239905.000			9.871			-3.290
240004.000			9.870			-3.290
240104.000			9.871			-3.290
240205.000			9.871			-3.290
240304.000			9.869			-3.290
240403.000			9.869			-3.290
240505.000			9.870			-3.290
240603.000			9.870			-3.290
240704.000			9.870			-3.290
240805.000			9.870			-3.290
240904.000			9.869			-3.290
241004.000			9.868			-3.289
241105.000			9.869			-3.290
241204.000			9.869			-3.290
241303.000			9.869			-3.290
241405.000			9.867			-3.289
241503.000			9.867			-3.289
241604.000			9.867			-3.289
241705.000			9.867			-3.289
241804.000			9.867			-3.289
241904.000			9.867			-3.289
242004.000			9.867			-3.289
242104.000			9.866			-3.289
242205.000			9.866			-3.289
242304.000			9.866			-3.289
242403.000			9.865			-3.288
242505.000			9.866			-3.289
242604.000			9.866			-3.289
242704.000			9.866			-3.289
242805.000			9.865			-3.288
242904.000			9.864			-3.288
243004.000			9.864			-3.288
243105.000			9.864			-3.288
243204.000			9.865			-3.288
243303.000			9.864			-3.288
243405.000			9.865			-3.288
243504.000			9.863			-3.288
243604.000			9.864			-3.288
243705.000			9.864			-3.288
243804.000			9.863			-3.288
243904.000			9.863			-3.288
244005.000			9.864			-3.288
244104.000			9.863			-3.288
244203.000			9.863			-3.288
244305.000			9.863			-3.288
244404.000			9.862			-3.287
244504.000			9.862			-3.287
244605.000			9.863			-3.288
244704.000			9.862			-3.287
244804.000			9.862			-3.287
244905.000			9.861			-3.287
245004.000			9.862			-3.287
245103.000			9.862			-3.287
245205.000			9.861			-3.287
245304.000			9.861			-3.287
245405.000			9.862			-3.287
245504.000			9.862			-3.287
245604.000			9.861			-3.287
245705.000			9.862			-3.287
245804.000			9.862			-3.287
245904.000			9.862			-3.287
246004.000			9.863			-3.288
246104.000			9.862			-3.287
246204.000			9.861			-3.287
246305.000			9.861			-3.287
246404.000			9.862			-3.287
246504.000			9.862			-3.287
246605.000			9.863			-3.288
246704.000			9.862			-3.287
246804.000			9.862			-3.287
246904.000			9.862			-3.287
247004.000			9.862			-3.287
247104.000			9.862			-3.287
247205.000			9.862			-3.287
247304.000			9.863			-3.288
247404.000			9.862			-3.287
247505.000			9.862			-3.287
247604.000			9.861			-3.287
247704.000			9.862			-3.287
247804.000			9.862			-3.287
247904.000			9.861			-3.287
248004.000			9.861			-3.287
248105.000			9.861			-3.287
248204.000			9.861			-3.287
248304.000			9.862			-3.287
248405.000			9.863			-3.288
248504.000			9.861			-3.287
248605.000			9.861			-3.287
248703.000			9.861			-3.287
248804.000			9.861			-3.287
248904.000			9.861			-3.287
249004.000			9.860			-3.287
249104.000			9.861			-3.287
249205.000			9.861			-3.287
249304.000			9.860			-3.287
249404.000			9.860			-3.287
249505.000			9.861			-3.287
249603.000			9.860			-3.287
249704.000			9.860			-3.287
249804.000			9.861			-3.287
249904.000			9.860			-3.287
250004.000			9.860			-3.287
250105.000			9.859			-3.286
250204.000			9.859			-3.286
250304.000			9.859			-3.286
250405.000			9.858			-3.286
250504.000			9.859			-3.286
250604.000			9.859			-3.286
250704.000			9.858			-3.286
250804.000			9.859			-3.286
250904.000			9.859			-3.286
251005.000			9.859			-3.286
251104.000			9.858			-3.286
251204.000			9.857			-3.286
251305.000			9.858			-3.286
251404.000			9.858			-3.286
251504.000			9.859			-3.286
251603.000			9.857			-3.286
251704.000			9.858			-3.286
251805.000			9.857			-3.286
251904.000			9.857			-3.286
252004.000			9.858			-3.286
252105.000			9.857			-3.286
252204.000			9.856			-3.285
252304.000			9.856			-3.285
252405.000			9.857			-3.286
252503.000			9.856			-3.285
252604.000			9.856			-3.285
252705.000			9.856			-3.285
252804.000			9.855			-3.285
252904.000			9.855			-3.285
253005.000			9.856			-3.285
253104.000			9.855			-3.285
253204.000			9.856			-3.285
253305.000			9.856			-3.285
253403.000			9.855			-3.285
253504.000			9.856			-3.285
253604.000			9.856			-3.285
253704.000			9.855			-3.285
253804.000			9.855			-3.285
253905.000			9.854			-3.285
254004.000			9.854			-3.285
254104.000			9.854			-3.285
254205.000			9.854			-3.285
254303.000			9.854			-3.285
254404.000			9.853			-3.284
254505.000			9.854			-3.285
254604.000			9.855			-3.285
254704.000			9.855			-3.285
254804.000			9.854			-3.285
254904.000			9.854			-3.285
255005.000			9.855			-3.285
255104.000			9.854			-3.285
255203.000			9.854			-3.285
255305.000			9.855			-3.285
255403.000			9.854			-3.285
255504.000			9.853			-3.284
255605.000			9.853			-3.284
255704.000			9.853			-3.284
255804.000			9.854			-3.285
255905.000			9.853			-3.284
256004.000			9.852			-3.284
256104.000			9.852			-3.284
256205.000			9.852			-3.284
256303.000			9.852			-3.284
256404.000			9.852			-3.284
256505.000			9.852			-3.284
256604.000			9.853			-3.284
256704.000			9.852			-3.284
256805.000			9.851			-3.284
256904.000			9.851			-3.284
257004.000			9.851			-3.284
257105.000			9.851			-3.284
257203.000			9.851			-3.284
257304.000			9.851			-3.284
257405.000			9.850			-3.283
257504.000			9.850			-3.283
257604.000			9.850			-3.283
257705.000			9.850			-3.283
257804.000			9.850			-3.283
257904.000			9.850			-3.283
258005.000			9.850			-3.283
258103.000			9.848			-3.283
258205.000			9.849			-3.283
258304.000			9.850			-3.283
258404.000			9.850			-3.283
258505.000			9.849			-3.283
258604.000			9.848			-3.283
258704.000			9.848			-3.283
258805.000			9.849			-3.283
258904.000			9.848			-3.283
259004.000			9.847			-3.282
259105.000			9.849			-3.283
259203.000			9.849			-3.283
259304.000			9.849			-3.283
259405.000			9.848			-3.283
259504.000			9.847			-3.282
259604.000			9.847			-3.282
259705.000			9.848			-3.283
259804.000			9.848			-3.283
259904.000			9.847			-3.282
260005.000			9.847			-3.282
260103.000			9.847			-3.282
260204.000			9.847			-3.282
260304.000			9.847			-3.282
260404.000			9.846			-3.282
260504.000			9.846			-3.282
260605.000			9.846			-3.282
260704.000			9.846			-3.282
260804.000			9.847			-3.282
260905.000			9.847			-3.282
261003.000			9.847			-3.282
261104.000			9.846			-3.282
261203.000			9.845			-3.282
261304.000			9.845			-3.282
261405.000			9.846			-3.282
261504.000			9.846			-3.282
261604.000			9.845			-3.282
261705.000			9.843			-3.281
261804.000			9.844			-3.281
261903.000			9.845			-3.282
262005.000			9.844			-3.281
262103.000			9.844			-3.281
262204.000			9.844			-3.281
262305.000			9.844			-3.281
262404.000			9.844			-3.281
262504.000			9.845			-3.282
262605.000			9.845			-3.282
262704.000			9.845			-3.282
262804.000			9.845			-3.282
262905.000			9.844			-3.281
263003.000			9.844			-3.281
263104.000			9.843			-3.281
263205.000			9.843			-3.281
263304.000			9.843			-3.281
263404.000			9.842			-3.281
263505.000			9.842			-3.281
263604.000			9.842			-3.281
263703.000			9.842			-3.281
263805.000			9.842			-3.281
263903.000			9.843			-3.281
264004.000			9.843			-3.281
264105.000			9.843			-3.281
264204.000			9.842			-3.281
264304.000			9.842			-3.281
264404.000			9.842			-3.281
264504.000			9.841			-3.280
264603.000			9.842			-3.281
264704.000			9.840			-3.280
264803.000			9.840			-3.280
264905.000			9.841			-3.280
265004.000			9.842			-3.281
265104.000			9.841			-3.280
265205.000			9.840			-3.280
265304.000			9.840			-3.280
265404.000			9.840			-3.280
265504.000			9.840			-3.280
265604.000			9.841			-3.280
265703.000			9.840			-3.280
265805.000			9.841			-3.280
265904.000			9.841			-3.280
266004.000			9.840			-3.280
266105.000			9.840			-3.280
266204.000			9.840			-3.280
266304.000			9.839			-3.280
266404.000			9.839			-3.280
266504.000			9.840			-3.280
266603.000			9.840			-3.280
266705.000			9.840			-3.280
266804.000			9.840			-3.280
266904.000			9.840			-3.280
267005.000			9.840			-3.280
267104.000			9.840			-3.280
267204.000			9.839			-3.280
267304.000			9.839			-3.280
267404.000			9.840			-3.280
267503.000			9.840			-3.280
267605.000			9.841			-3.280
267704.000			9.841			-3.280
267805.000			9.841			-3.280
267904.000			9.841			-3.280
268004.000			9.841			-3.280
268105.000			9.840			-3.280
268204.000			9.840			-3.280
268304.000			9.840			-3.280
268404.000			9.840			-3.280
268504.000			9.840			-3.280
268604.000			9.840			-3.280
268705.000			9.840			-3.280
268804.000			9.840			-3.280
268904.000			9.840			-3.280
269005.000			9.841			-3.280
269104.000			9.840			-3.280
269204.000			9.840			-3.280
269304.000			9.841			-3.280
269404.000			9.839			-3.280
269503.000			9.839			-3.280
269605.000			9.840			-3.280
269704.000			9.840			-3.280
269804.000			9.839			-3.280
269905.000			9.838			-3.279
270004.000			9.838			-3.279
270104.000			9.839			-3.280
270204.000			9.839			-3.280
270304.000			9.839			-3.280
270403.000			9.839			-3.280
270505.000			9.838			-3.279
270604.000			9.838			-3.279
270704.000			9.838			-3.279
270805.000			9.838			-3.279
270904.000			9.838			-3.279
271005.000			9.837			-3.279
271104.000			9.838			-3.279
271204.000			9.838			-3.279
271304.000			9.838			-3.279
271404.000			9.837			-3.279
271504.000			9.837			-3.279
271605.000			9.837			-3.279
271704.000			9.837			-3.279
271804.000			9.837			-3.279
271905.000			9.837			-3.279
272004.000			9.837			-3.279
272104.000			9.837			-3.279
272204.000			9.837			-3.279
272304.000			9.837			-3.279
272404.000			9.835			-3.278
272505.000			9.836			-3.279
272604.000			9.837			-3.279
272704.000			9.836			-3.279
272805.000			9.836			-3.279
272904.000			9.836			-3.279
273004.000			9.835			-3.278
273104.000			9.835			-3.278
273204.000			9.835			-3.278
273304.000			9.835			-3.278
273405.000			9.835			-3.278
273504.000			9.835			-3.278
273604.000			9.834			-3.278
273705.000			9.835			-3.278
273804.000			9.834			-3.278
273904.000			9.835			-3.278
274003.000			9.834			-3.278
274104.000			9.833			-3.278
274203.000			9.833			-3.278
274304.000			9.834			-3.278
274404.000			9.833			-3.278
274505.000			9.832			-3.277
274604.000			9.832			-3.277
274704.000			9.833			-3.278
274805.000			9.834			-3.278
274903.000			9.832			-3.277
275004.000			9.832			-3.277
275104.000			9.832			-3.277
275204.000			9.831			-3.277
275304.000			9.832			-3.277
275405.000			9.832			-3.277
275504.000			9.832			-3.277
275604.000			9.832			-3.277
275705.000			9.832			-3.277
275803.000			9.832			-3.277
275904.000			9.831			-3.277
276004.000			9.831			-3.277
276104.000			9.831			-3.277
276204.000			9.830			-3.277
276305.000			9.831			-3.277
276404.000			9.831			-3.277
276504.000			9.830			-3.277
276605.000			9.831			-3.277
276703.000			9.830			-3.277
276804.000			9.830			-3.277
276904.000			9.830			-3.277
277004.000			9.830			-3.277
277104.000			9.830			-3.277
277204.000			9.830			-3.277
277304.000			9.829			-3.276
277405.000			9.830			-3.277
277504.000			9.829			-3.276
277603.000			9.829			-3.276
277705.000			9.829			-3.276
277803.000			9.828			-3.276
277904.000			9.828			-3.276
278005.000			9.828			-3.276
278104.000			9.828			-3.276
278204.000			9.830			-3.277
278305.000			9.829			-3.276
278404.000			9.829			-3.276
278504.000			9.829			-3.276
278605.000			9.829			-3.276
278703.000			9.828			-3.276
278804.000			9.828			-3.276
278905.000			9.829			-3.276
279004.000			9.829			-3.276
279104.000			9.828			-3.276
279205.000			9.828			-3.276
279304.000			9.829			-3.276
279404.000			9.828			-3.276
279505.000			9.828			-3.276
279603.000			9.828			-3.276
279704.000			9.828			-3.276
279804.000			9.828			-3.276
279904.000			9.828			-3.276
280004.000			9.828			-3.276
280105.000			9.828			-3.276
280204.000			9.827			-3.276
280304.000			9.828			-3.276
280405.000			9.827			-3.276
280504.000			9.826			-3.275
280605.000			9.827			-3.276
280703.000			9.827			-3.276
280804.000			9.826			-3.275
280905.000			9.827			-3.276
281004.000			9.827			-3.276
281104.000			9.827			-3.276
281205.000			9.827			-3.276
281304.000			9.826			-3.275
281404.000			9.825			-3.275
281505.000			9.825			-3.275
281603.000			9.824			-3.275
281704.000			9.824			-3.275
281805.000			9.825			-3.275
281904.000			9.826			-3.275
282004.000			9.826			-3.275
282105.000			9.826			-3.275
282204.000			9.825			-3.275
282304.000			9.825			-3.275
282405.000			9.824			-3.275
282503.000			9.825			-3.275
282604.000			9.825			-3.275
282705.000			9.825			-3.275
282804.000			9.825			-3.275
282904.000			9.824			-3.275
283005.000			9.825			-3.275
283104.000			9.824			-3.275
283204.000			9.824			-3.275
283305.000			9.824			-3.275
283403.000			9.824			-3.275
283504.000			9.824			-3.275
283605.000			9.823			-3.274
283704.000			9.824			-3.275
283805.000			9.824			-3.275
283904.000			9.824			-3.275
284004.000			9.824			-3.275
284105.000			9.823			-3.274
284204.000			9.824			-3.275
284303.000			9.824			-3.275
284405.000			9.823			-3.274
284504.000			9.823			-3.274
284604.000			9.824			-3.275
284705.000			9.824			-3.275
284804.000			9.823			-3.274
284904.000			9.823			-3.274
285005.000			9.823			-3.274
285104.000			9.823			-3.274
285203.000			9.823			-3.274
285305.000			9.823			-3.274
285404.000			9.822			-3.274
285504.000			9.822			-3.274
285605.000			9.822			-3.274
285704.000			9.821			-3.274
285804.000			9.823			-3.274
285905.000			9.822			-3.274
286004.000			9.822			-3.274
286103.000			9.822			-3.274
286205.000			9.822			-3.274
286304.000			9.822			-3.274
286404.000			9.821			-3.274
286505.000			9.821			-3.274
286604.000			9.821			-3.274
286704.000			9.820			-3.273
286804.000			9.821			-3.274
286904.000			9.821			-3.274
287003.000			9.821			-3.274
287104.000			9.821			-3.274
287203.000			9.820			-3.273
287305.000			9.820			-3.273
287404.000			9.819			-3.273
287504.000			9.820			-3.273
287605.000			9.820			-3.273
287704.000			9.820			-3.273
287804.000			9.821			-3.274
287905.000			9.819			-3.273
288004.000			9.819			-3.273
288103.000			9.819			-3.273
288205.000			9.820			-3.273
288304.000			9.819			-3.273
288404.000			9.819			-3.273
288505.000			9.819			-3.273
288604.000			9.820			-3.273
288704.000			9.819			-3.273
288805.000			9.819			-3.273
288904.000			9.819			-3.273
289003.000			9.819			-3.273
289105.000			9.819			-3.273
289204.000			9.819			-3.273
289304.000			9.819			-3.273
289405.000			9.819			-3.273
289504.000			9.818			-3.273
289604.000			9.818			-3.273
289705.000			9.818			-3.273
289804.000			9.818			-3.273
289904.000			9.819			-3.273
290005.000			9.818			-3.273
290103.000			9.817			-3.272
290205.000			9.816			-3.272
290304.000			9.817			-3.272
290404.000			9.817			-3.272
290505.000			9.818			-3.273
290604.000			9.818			-3.273
290704.000			9.818			-3.273
290805.000			9.817			-3.272
290904.000			9.816			-3.272
291003.000			9.817			-3.272
291105.000			9.818			-3.273
291204.000			9.818			-3.273
291304.000			9.817			-3.272
291405.000			9.818			-3.273
291504.000			9.817			-3.272
291604.000			9.816			-3.272
291705.000			9.815			-3.272
291804.000			9.816			-3.272
291903.000			9.817			-3.272
292005.000			9.817			-3.272
292104.000			9.816			-3.272
292204.000			9.816			-3.272
292305.000			9.815			-3.272
292404.000			9.816			-3.272
292504.000			9.816			-3.272
292605.000			9.816			-3.272
292704.000			9.816			-3.272
292803.000			9.816			-3.272
292905.000			9.815			-3.272
293004.000			9.816			-3.272
293104.000			9.816			-3.272
293205.000			9.816			-3.272
293304.000			9.815			-3.272
293405.000			9.814			-3.271
293504.000			9.814			-3.271
293604.000			9.815			-3.272
293704.000			9.815			-3.272
293804.000			9.815			-3.272
293904.000			9.815			-3.272
294005.000			9.814			-3.271
294104.000			9.813			-3.271
294204.000			9.813			-3.271
294305.000			9.814			-3.271
294404.000			9.814			-3.271
294504.000			9.814			-3.271
294604.000			9.813			-3.271
294704.000			9.813			-3.271
294804.000			9.814			-3.271
294905.000			9.814			-3.271
295004.000			9.813			-3.271
295104.000			9.813			-3.271
295205.000			9.814			-3.271
295304.000			9.813			-3.271
295404.000			9.814			-3.271
295504.000			9.814			-3.271
295604.000			9.814			-3.271
295704.000			9.813			-3.271
295805.000			9.813			-3.271
295904.000			9.813			-3.271
296004.000			9.812			-3.271
296105.000			9.812			-3.271
296204.000			9.812			-3.271
296304.000			9.813			-3.271
296403.000			9.812			-3.271
296504.000			9.812			-3.271
296605.000			9.812			-3.271
296704.000			9.812			-3.271
296804.000			9.812			-3.271
296905.000			9.812			-3.271
297004.000			9.810			-3.270
297104.000			9.811			-3.270
297205.000			9.812			-3.271
297303.000			9.812			-3.271
297404.000			9.812			-3.271
297505.000			9.811			-3.270
297604.000			9.812			-3.271
297704.000			9.811			-3.270
297805.000			9.811			-3.270
297904.000			9.811			-3.270
298004.000			9.810			-3.270
298105.000			9.810			-3.270
298203.000			9.810			-3.270
298304.000			9.810			-3.270
298404.000			9.810			-3.270
298504.000			9.809			-3.270
298604.000			9.809			-3.270
298705.000			9.809			-3.270
298804.000			9.808			-3.269
298904.000			9.809			-3.270
299005.000			9.809			-3.270
299104.000			9.810			-3.270
299204.000			9.809			-3.270
299304.000			9.808			-3.269
299404.000			9.808			-3.269
299504.000			9.808			-3.269
299604.000			9.809			-3.270
299704.000			9.808			-3.269
299805.000			9.807			-3.269
299904.000			9.808			-3.269
