# Acquired on 08/01/2024 11:10:13 
# SPIDER: Creep_2mm_07714532B-1
# CREEP MEASUREMENT

# time [ms]		force [N]		stiffness [N/mm]
0.000			-4.091			-2.045
101.000			-5.272			-2.636
200.000			-6.023			-3.012
301.000			-5.997			-2.998
402.000			-5.967			-2.984
500.000			-5.946			-2.973
600.000			-5.928			-2.964
701.000			-5.914			-2.957
800.000			-5.901			-2.950
900.000			-5.889			-2.944
1002.000			-5.870			-2.935
1101.000			-5.861			-2.931
1200.000			-5.853			-2.927
1301.000			-5.846			-2.923
1400.000			-5.839			-2.919
1500.000			-5.833			-2.916
1601.000			-5.827			-2.914
1700.000			-5.818			-2.909
1801.000			-5.813			-2.906
1902.000			-5.807			-2.904
2000.000			-5.803			-2.901
2100.000			-5.799			-2.899
2201.000			-5.795			-2.898
2300.000			-5.791			-2.896
2401.000			-5.784			-2.892
2501.000			-5.780			-2.890
2601.000			-5.776			-2.888
2701.000			-5.772			-2.886
2800.000			-5.769			-2.885
2900.000			-5.767			-2.884
3001.000			-5.764			-2.882
3100.000			-5.761			-2.881
3200.000			-5.756			-2.878
3302.000			-5.754			-2.877
3401.000			-5.751			-2.876
3500.000			-5.749			-2.874
3601.000			-5.746			-2.873
3700.000			-5.745			-2.872
3800.000			-5.743			-2.871
3901.000			-5.738			-2.869
4001.000			-5.736			-2.868
4101.000			-5.733			-2.867
4201.000			-5.731			-2.865
4300.000			-5.729			-2.864
4400.000			-5.727			-2.864
4501.000			-5.725			-2.863
4600.000			-5.722			-2.861
4700.000			-5.721			-2.860
4802.000			-5.719			-2.859
4901.000			-5.716			-2.858
5000.000			-5.715			-2.857
5101.000			-5.713			-2.856
5200.000			-5.711			-2.856
5300.000			-5.709			-2.854
5401.000			-5.707			-2.853
5501.000			-5.705			-2.852
5602.000			-5.704			-2.852
5701.000			-5.703			-2.852
5800.000			-5.701			-2.851
5901.000			-5.701			-2.850
6000.000			-5.699			-2.849
6100.000			-5.696			-2.848
6201.000			-5.694			-2.847
6301.000			-5.693			-2.847
6401.000			-5.692			-2.846
6501.000			-5.691			-2.846
6600.000			-5.690			-2.845
6700.000			-5.689			-2.845
6801.000			-5.686			-2.843
6900.000			-5.684			-2.842
7000.000			-5.683			-2.842
7102.000			-5.682			-2.841
7201.000			-5.680			-2.840
7300.000			-5.679			-2.840
7401.000			-5.679			-2.840
7500.000			-5.677			-2.839
7600.000			-5.676			-2.838
7701.000			-5.675			-2.837
7801.000			-5.673			-2.837
7901.000			-5.672			-2.836
8001.000			-5.671			-2.836
8100.000			-5.671			-2.835
8200.000			-5.670			-2.835
8301.000			-5.667			-2.833
8400.000			-5.666			-2.833
8500.000			-5.665			-2.833
8602.000			-5.664			-2.832
8701.000			-5.663			-2.832
8801.000			-5.663			-2.831
8900.000			-5.662			-2.831
9000.000			-5.661			-2.831
9101.000			-5.660			-2.830
9200.000			-5.658			-2.829
9300.000			-5.657			-2.828
9402.000			-5.656			-2.828
9501.000			-5.655			-2.828
9600.000			-5.655			-2.827
9701.000			-5.653			-2.827
9800.000			-5.652			-2.826
9900.000			-5.652			-2.826
10001.000			-5.651			-2.826
10101.000			-5.650			-2.825
10201.000			-5.649			-2.824
10301.000			-5.648			-2.824
10400.000			-5.647			-2.823
10500.000			-5.646			-2.823
10601.000			-5.646			-2.823
10700.000			-5.645			-2.823
10800.000			-5.644			-2.822
10902.000			-5.642			-2.821
11001.000			-5.642			-2.821
11100.000			-5.641			-2.820
11201.000			-5.640			-2.820
11300.000			-5.640			-2.820
11400.000			-5.638			-2.819
11501.000			-5.638			-2.819
11600.000			-5.637			-2.819
11701.000			-5.638			-2.819
11802.000			-5.637			-2.819
11900.000			-5.634			-2.817
12001.000			-5.634			-2.817
12100.000			-5.634			-2.817
12200.000			-5.633			-2.817
12301.000			-5.632			-2.816
12400.000			-5.631			-2.816
12501.000			-5.631			-2.815
12602.000			-5.629			-2.814
12700.000			-5.628			-2.814
12800.000			-5.628			-2.814
12901.000			-5.628			-2.814
13000.000			-5.628			-2.814
13100.000			-5.628			-2.814
13201.000			-5.626			-2.813
13301.000			-5.624			-2.812
13401.000			-5.624			-2.812
13501.000			-5.624			-2.812
13600.000			-5.623			-2.812
13700.000			-5.622			-2.811
13801.000			-5.621			-2.811
13900.000			-5.621			-2.811
14000.000			-5.621			-2.810
14102.000			-5.619			-2.810
14201.000			-5.620			-2.810
14300.000			-5.619			-2.810
14401.000			-5.618			-2.809
14500.000			-5.616			-2.808
14600.000			-5.617			-2.808
14701.000			-5.615			-2.807
14801.000			-5.615			-2.807
14901.000			-5.614			-2.807
15001.000			-5.614			-2.807
15100.000			-5.612			-2.806
15201.000			-5.612			-2.806
15300.000			-5.612			-2.806
15400.000			-5.611			-2.806
15501.000			-5.611			-2.806
15601.000			-5.610			-2.805
15701.000			-5.609			-2.805
15801.000			-5.609			-2.805
15900.000			-5.608			-2.804
16000.000			-5.608			-2.804
16101.000			-5.608			-2.804
16200.000			-5.607			-2.804
16300.000			-5.607			-2.803
16402.000			-5.606			-2.803
16501.000			-5.604			-2.802
16600.000			-5.603			-2.802
16701.000			-5.604			-2.802
16800.000			-5.604			-2.802
16900.000			-5.603			-2.802
17001.000			-5.601			-2.801
17100.000			-5.602			-2.801
17201.000			-5.602			-2.801
17302.000			-5.602			-2.801
17400.000			-5.601			-2.800
17500.000			-5.599			-2.799
17601.000			-5.599			-2.800
17700.000			-5.599			-2.799
17800.000			-5.598			-2.799
17901.000			-5.598			-2.799
18001.000			-5.597			-2.799
18101.000			-5.596			-2.798
18201.000			-5.594			-2.797
18300.000			-5.595			-2.797
18401.000			-5.596			-2.798
18500.000			-5.594			-2.797
18600.000			-5.594			-2.797
18701.000			-5.595			-2.797
18801.000			-5.594			-2.797
18901.000			-5.593			-2.796
19001.000			-5.592			-2.796
19100.000			-5.591			-2.796
19200.000			-5.592			-2.796
19301.000			-5.591			-2.795
19400.000			-5.589			-2.795
19500.000			-5.589			-2.795
19602.000			-5.589			-2.794
19701.000			-5.588			-2.794
19800.000			-5.588			-2.794
19901.000			-5.588			-2.794
20000.000			-5.586			-2.793
20100.000			-5.587			-2.794
20201.000			-5.588			-2.794
20300.000			-5.586			-2.793
20401.000			-5.585			-2.792
20502.000			-5.585			-2.793
20600.000			-5.584			-2.792
20700.000			-5.585			-2.792
20801.000			-5.585			-2.792
20900.000			-5.584			-2.792
21000.000			-5.583			-2.792
21101.000			-5.583			-2.791
21201.000			-5.581			-2.791
21301.000			-5.581			-2.790
21401.000			-5.582			-2.791
21500.000			-5.582			-2.791
21601.000			-5.580			-2.790
21700.000			-5.579			-2.789
21800.000			-5.579			-2.789
21901.000			-5.579			-2.790
22001.000			-5.579			-2.789
22101.000			-5.577			-2.789
22201.000			-5.577			-2.789
22300.000			-5.577			-2.788
22400.000			-5.577			-2.788
22501.000			-5.576			-2.788
22600.000			-5.576			-2.788
22700.000			-5.575			-2.788
22802.000			-5.575			-2.787
22901.000			-5.574			-2.787
23000.000			-5.573			-2.787
23101.000			-5.573			-2.787
23200.000			-5.573			-2.787
23300.000			-5.573			-2.786
23401.000			-5.572			-2.786
23500.000			-5.573			-2.786
23601.000			-5.572			-2.786
23702.000			-5.572			-2.786
23800.000			-5.572			-2.786
23900.000			-5.570			-2.785
24001.000			-5.569			-2.785
24100.000			-5.569			-2.785
24200.000			-5.569			-2.785
24301.000			-5.569			-2.785
24401.000			-5.569			-2.784
24501.000			-5.568			-2.784
24601.000			-5.567			-2.784
24700.000			-5.567			-2.784
24801.000			-5.567			-2.784
24900.000			-5.567			-2.784
25000.000			-5.566			-2.783
25101.000			-5.565			-2.783
25201.000			-5.565			-2.782
25301.000			-5.565			-2.783
25401.000			-5.564			-2.782
25500.000			-5.564			-2.782
25600.000			-5.564			-2.782
25701.000			-5.563			-2.782
25800.000			-5.564			-2.782
25900.000			-5.563			-2.782
26002.000			-5.562			-2.781
26101.000			-5.562			-2.781
26200.000			-5.561			-2.781
26301.000			-5.561			-2.781
26400.000			-5.561			-2.780
26500.000			-5.561			-2.781
26601.000			-5.561			-2.780
26701.000			-5.560			-2.780
26801.000			-5.559			-2.779
26902.000			-5.558			-2.779
27000.000			-5.559			-2.779
27100.000			-5.559			-2.779
27201.000			17.458			8.729
27300.000			-193.234			-96.617
27400.000			-5.557			-2.779
27501.000			-5.557			-2.779
27601.000			-5.556			-2.778
27701.000			-5.556			-2.778
27801.000			-5.555			-2.778
27900.000			-5.555			-2.777
28001.000			-5.555			-2.777
28100.000			-5.554			-2.777
28200.000			-5.555			-2.777
28301.000			-5.555			-2.777
28401.000			-5.554			-2.777
28501.000			-5.553			-2.776
28601.000			-5.552			-2.776
28700.000			-5.552			-2.776
28800.000			-5.552			-2.776
28901.000			-5.552			-2.776
29000.000			-5.552			-2.776
29100.000			-5.551			-2.776
29202.000			-5.551			-2.776
29301.000			-5.550			-2.775
29400.000			-5.551			-2.775
29501.000			-5.550			-2.775
29600.000			-5.549			-2.774
29700.000			-5.548			-2.774
29801.000			-5.548			-2.774
29900.000			-5.549			-2.774
30001.000			-5.547			-2.774
30102.000			-5.547			-2.774
30200.000			-5.546			-2.773
30300.000			-5.546			-2.773
30401.000			-5.546			-2.773
30500.000			-5.546			-2.773
30600.000			-5.546			-2.773
30702.000			-5.545			-2.773
30801.000			-5.545			-2.772
30900.000			-5.546			-2.773
31001.000			-5.545			-2.773
31100.000			-5.545			-2.772
31201.000			-5.544			-2.772
31300.000			-5.542			-2.771
31400.000			-5.544			-2.772
31502.000			-5.543			-2.772
31601.000			-5.542			-2.771
31700.000			-5.542			-2.771
31801.000			-5.541			-2.770
31900.000			-5.540			-2.770
32000.000			-5.540			-2.770
32101.000			-5.540			-2.770
32200.000			-5.540			-2.770
32301.000			-5.540			-2.770
32402.000			-5.539			-2.770
32500.000			-5.539			-2.769
32600.000			-5.538			-2.769
32701.000			-5.538			-2.769
32800.000			-5.539			-2.769
32900.000			-5.538			-2.769
33001.000			-5.539			-2.769
33101.000			-5.537			-2.768
33201.000			-5.536			-2.768
33301.000			-5.537			-2.768
33400.000			-5.537			-2.768
33500.000			-5.537			-2.769
33601.000			-5.536			-2.768
33700.000			-5.536			-2.768
33800.000			-5.534			-2.767
33902.000			-5.536			-2.768
34001.000			-5.536			-2.768
34100.000			-5.534			-2.767
34201.000			-5.534			-2.767
34300.000			-5.534			-2.767
34401.000			-5.533			-2.766
34500.000			-5.532			-2.766
34601.000			-5.533			-2.766
34702.000			-5.531			-2.766
34800.000			-5.532			-2.766
34900.000			-5.532			-2.766
35001.000			-5.532			-2.766
35100.000			-5.531			-2.766
35200.000			-5.530			-2.765
35301.000			-5.531			-2.765
35401.000			-5.530			-2.765
35501.000			-5.530			-2.765
35601.000			-5.529			-2.765
35700.000			-5.530			-2.765
35800.000			-5.530			-2.765
35901.000			-5.529			-2.764
36000.000			-5.528			-2.764
36100.000			-5.529			-2.764
36202.000			-5.529			-2.764
36301.000			-5.528			-2.764
36400.000			-5.527			-2.763
36501.000			-5.526			-2.763
36600.000			-5.528			-2.764
36700.000			-5.526			-2.763
36801.000			-5.526			-2.763
36900.000			-5.525			-2.763
37001.000			-5.525			-2.763
37102.000			-5.525			-2.762
37200.000			-5.525			-2.762
37300.000			-5.525			-2.763
37401.000			-5.526			-2.763
37500.000			-5.525			-2.762
37601.000			-5.523			-2.762
37700.000			-5.523			-2.762
37801.000			-5.524			-2.762
37902.000			-5.523			-2.761
38000.000			-5.522			-2.761
38100.000			-5.523			-2.762
38201.000			-5.522			-2.761
38300.000			-5.522			-2.761
38400.000			-5.522			-2.761
38502.000			-5.521			-2.761
38601.000			-5.521			-2.760
38701.000			-5.520			-2.760
38801.000			-5.521			-2.761
38900.000			-5.520			-2.760
39000.000			-5.519			-2.759
39101.000			-5.519			-2.760
39200.000			-5.520			-2.760
39300.000			-5.520			-2.760
39402.000			-5.519			-2.760
39501.000			-5.519			-2.760
39600.000			-5.519			-2.759
39701.000			-5.518			-2.759
39800.000			-5.517			-2.758
39900.000			-5.517			-2.759
40001.000			-5.518			-2.759
40101.000			-5.517			-2.759
40201.000			-5.516			-2.758
40301.000			-5.516			-2.758
40400.000			-5.516			-2.758
40500.000			-5.516			-2.758
40601.000			-5.516			-2.758
40700.000			-5.516			-2.758
40801.000			-5.515			-2.757
40901.000			-5.515			-2.757
41001.000			-5.515			-2.757
41101.000			-5.514			-2.757
41200.000			-5.514			-2.757
41300.000			-5.514			-2.757
41401.000			-5.513			-2.757
41500.000			-5.513			-2.756
41600.000			-5.513			-2.757
41702.000			-5.513			-2.756
41801.000			-5.513			-2.757
41900.000			-5.512			-2.756
42001.000			-5.512			-2.756
42100.000			-5.510			-2.755
42200.000			-5.511			-2.755
42301.000			-5.510			-2.755
42400.000			-5.509			-2.755
42501.000			-5.510			-2.755
42602.000			-5.511			-2.755
42700.000			-5.510			-2.755
42800.000			-5.509			-2.754
42901.000			-5.509			-2.754
43000.000			-5.509			-2.754
43100.000			-5.508			-2.754
43201.000			-5.508			-2.754
43301.000			-5.508			-2.754
43401.000			-5.508			-2.754
43501.000			-5.507			-2.753
43600.000			-5.507			-2.754
43700.000			-5.508			-2.754
43801.000			-5.508			-2.754
43900.000			-5.508			-2.754
44001.000			-5.507			-2.753
44101.000			-5.506			-2.753
44201.000			-5.506			-2.753
44301.000			-5.506			-2.753
44400.000			-5.505			-2.753
44500.000			-5.504			-2.752
44601.000			-5.504			-2.752
44700.000			-5.504			-2.752
44801.000			-5.505			-2.752
44902.000			-5.504			-2.752
45000.000			-5.503			-2.752
45100.000			-5.503			-2.752
45201.000			-5.503			-2.752
45300.000			-5.503			-2.752
45400.000			-5.503			-2.752
45501.000			-5.504			-2.752
45601.000			-5.503			-2.752
45701.000			-5.502			-2.751
45801.000			-5.501			-2.751
45900.000			-5.501			-2.751
46000.000			-5.501			-2.750
46101.000			-5.501			-2.751
46200.000			-5.502			-2.751
46300.000			-5.501			-2.750
46402.000			-5.500			-2.750
46501.000			-5.501			-2.750
46600.000			-5.500			-2.750
46701.000			-5.500			-2.750
46800.000			-5.500			-2.750
46900.000			-5.499			-2.749
47001.000			-5.499			-2.750
47100.000			-5.499			-2.750
47202.000			-5.499			-2.749
47301.000			-5.498			-2.749
47400.000			-5.498			-2.749
47501.000			-5.498			-2.749
47600.000			-5.498			-2.749
47700.000			-5.497			-2.749
47801.000			-5.497			-2.748
47900.000			-5.496			-2.748
48001.000			-5.496			-2.748
48102.000			-5.497			-2.748
48200.000			-5.496			-2.748
48300.000			-5.497			-2.748
48401.000			-5.496			-2.748
48500.000			-5.496			-2.748
48600.000			-5.495			-2.748
48701.000			-5.495			-2.747
48801.000			-5.494			-2.747
48901.000			-5.494			-2.747
49001.000			-5.494			-2.747
49100.000			-5.494			-2.747
49200.000			-5.493			-2.746
49301.000			-5.492			-2.746
49400.000			-5.493			-2.746
49500.000			-5.493			-2.746
49602.000			-5.493			-2.747
49701.000			-5.493			-2.746
49800.000			-5.492			-2.746
49901.000			-5.493			-2.746
50000.000			-5.492			-2.746
50100.000			-5.491			-2.746
50201.000			-5.491			-2.745
50300.000			-5.491			-2.746
50402.000			-5.491			-2.746
50501.000			-5.491			-2.745
50600.000			-5.490			-2.745
50701.000			-5.491			-2.745
50800.000			-5.490			-2.745
50900.000			-5.489			-2.745
51001.000			-5.489			-2.745
51100.000			-5.489			-2.745
51201.000			-5.490			-2.745
51302.000			-5.489			-2.745
51400.000			-5.489			-2.744
51500.000			-5.489			-2.744
51601.000			-5.488			-2.744
51700.000			-5.487			-2.744
51800.000			-5.487			-2.743
51901.000			-5.487			-2.744
52001.000			-5.488			-2.744
52101.000			-5.487			-2.744
52201.000			-5.486			-2.743
52300.000			-5.486			-2.743
52400.000			-5.485			-2.743
52501.000			-5.485			-2.742
52600.000			-5.485			-2.743
52700.000			-5.486			-2.743
52802.000			-5.485			-2.743
52901.000			-5.486			-2.743
53000.000			-5.486			-2.743
53101.000			-5.485			-2.742
53200.000			-5.486			-2.743
53300.000			-5.486			-2.743
53401.000			-5.484			-2.742
53500.000			-5.484			-2.742
53602.000			-5.483			-2.742
53701.000			-5.484			-2.742
53800.000			-5.484			-2.742
53901.000			-5.483			-2.742
54000.000			-5.483			-2.742
54100.000			-5.483			-2.741
54201.000			-5.482			-2.741
54300.000			-5.482			-2.741
54401.000			-5.482			-2.741
54502.000			-5.482			-2.741
54600.000			-5.481			-2.741
54700.000			-5.482			-2.741
54801.000			-5.482			-2.741
54900.000			-5.481			-2.741
55000.000			-5.481			-2.740
55101.000			-5.481			-2.741
55201.000			-5.481			-2.741
55301.000			-5.481			-2.740
55401.000			-5.481			-2.740
55500.000			-5.481			-2.740
55600.000			-5.481			-2.741
55701.000			-5.481			-2.740
55800.000			-5.480			-2.740
55900.000			-5.479			-2.740
56002.000			-5.480			-2.740
56101.000			-5.478			-2.739
56200.000			-5.478			-2.739
56301.000			-5.478			-2.739
56400.000			-5.478			-2.739
56500.000			-5.478			-2.739
56601.000			-5.477			-2.739
56700.000			-5.478			-2.739
56802.000			-5.477			-2.739
56901.000			-5.477			-2.738
57000.000			-5.477			-2.738
57101.000			-5.477			-2.738
57200.000			-5.477			-2.738
57300.000			-5.476			-2.738
57401.000			-5.475			-2.738
57500.000			-5.476			-2.738
57600.000			-5.475			-2.738
57702.000			-5.476			-2.738
57801.000			-5.476			-2.738
57900.000			-5.476			-2.738
58001.000			-5.476			-2.738
58100.000			-5.475			-2.737
58200.000			-5.475			-2.737
58301.000			-5.475			-2.737
58400.000			-5.475			-2.737
58501.000			-5.475			-2.738
58602.000			-5.475			-2.737
58700.000			-5.474			-2.737
58800.000			-5.474			-2.737
58901.000			-5.474			-2.737
59000.000			-5.473			-2.737
59100.000			-5.474			-2.737
59201.000			-5.474			-2.737
59301.000			-5.474			-2.737
59401.000			-5.473			-2.736
59501.000			-5.472			-2.736
59600.000			-5.473			-2.736
59700.000			-5.472			-2.736
59801.000			-5.472			-2.736
59900.000			-5.473			-2.736
60001.000			-5.472			-2.736
60101.000			-5.471			-2.736
60201.000			-5.472			-2.736
60301.000			-5.472			-2.736
60400.000			-5.472			-2.736
60500.000			-5.471			-2.736
60601.000			-5.472			-2.736
60700.000			-5.472			-2.736
60800.000			-5.471			-2.736
60902.000			-5.471			-2.735
61001.000			-5.470			-2.735
61100.000			-5.470			-2.735
61201.000			-5.470			-2.735
61300.000			-5.470			-2.735
61400.000			-5.470			-2.735
61501.000			-5.471			-2.735
61600.000			-5.469			-2.735
61701.000			-5.470			-2.735
61802.000			-5.469			-2.734
61900.000			-5.469			-2.734
62000.000			-5.469			-2.735
62101.000			-5.470			-2.735
62200.000			-5.469			-2.734
62300.000			-5.467			-2.734
62402.000			-5.468			-2.734
62501.000			-5.468			-2.734
62601.000			-5.469			-2.734
62701.000			-5.469			-2.735
62800.000			-5.468			-2.734
62900.000			-5.467			-2.734
63001.000			-5.467			-2.733
63100.000			-5.467			-2.734
63201.000			-5.468			-2.734
63301.000			-5.468			-2.734
63401.000			-5.467			-2.734
63501.000			-5.468			-2.734
63600.000			-5.467			-2.734
63700.000			-5.467			-2.733
63801.000			-5.466			-2.733
63900.000			-5.466			-2.733
64000.000			-5.466			-2.733
64102.000			-5.466			-2.733
64201.000			-5.465			-2.733
64300.000			-5.465			-2.733
64401.000			-5.465			-2.733
64500.000			-5.465			-2.733
64600.000			-5.464			-2.732
64701.000			-5.464			-2.732
64800.000			-5.464			-2.732
64901.000			-5.463			-2.732
65002.000			-5.464			-2.732
65100.000			-5.464			-2.732
65200.000			-5.462			-2.731
65301.000			-5.465			-2.732
65400.000			-5.465			-2.733
65500.000			-5.463			-2.732
65601.000			-5.463			-2.732
65701.000			-5.464			-2.732
65801.000			-5.464			-2.732
65901.000			-5.463			-2.732
66000.000			-5.462			-2.731
66100.000			-5.463			-2.731
66201.000			-5.463			-2.731
66300.000			-5.463			-2.731
66401.000			-5.462			-2.731
66501.000			-5.462			-2.731
66601.000			-5.462			-2.731
66701.000			-5.461			-2.730
66800.000			-5.461			-2.730
66900.000			-5.461			-2.731
67001.000			-5.461			-2.731
67100.000			-5.461			-2.730
67200.000			-5.461			-2.730
67302.000			-5.461			-2.731
67401.000			-5.461			-2.730
67500.000			-5.461			-2.730
67601.000			-5.461			-2.730
67700.000			-5.461			-2.730
67800.000			-5.460			-2.730
67901.000			-5.460			-2.730
68000.000			-5.459			-2.730
68101.000			-5.460			-2.730
68202.000			-5.459			-2.729
68300.000			-5.460			-2.730
68400.000			-5.459			-2.730
68501.000			-5.458			-2.729
68600.000			-5.459			-2.730
68700.000			-5.459			-2.730
68801.000			-5.459			-2.730
68901.000			-5.459			-2.730
69001.000			-5.458			-2.729
69101.000			-5.458			-2.729
69200.000			-5.458			-2.729
69300.000			-5.458			-2.729
69401.000			-5.458			-2.729
69500.000			-5.458			-2.729
69601.000			-5.459			-2.730
69701.000			-5.457			-2.728
69801.000			-5.458			-2.729
69902.000			-5.459			-2.729
70000.000			-5.458			-2.729
70100.000			-5.458			-2.729
70201.000			-5.457			-2.729
70300.000			-5.457			-2.728
70400.000			-5.456			-2.728
70501.000			-5.457			-2.729
70601.000			-5.457			-2.729
70701.000			-5.456			-2.728
70801.000			-5.456			-2.728
70900.000			-5.456			-2.728
71000.000			-5.457			-2.728
71101.000			-5.456			-2.728
71200.000			-5.457			-2.729
71300.000			-5.456			-2.728
71402.000			-5.455			-2.727
71501.000			-5.455			-2.727
71600.000			-5.455			-2.727
71701.000			-5.455			-2.728
71800.000			-5.455			-2.727
71900.000			-5.455			-2.728
72001.000			-5.454			-2.727
72100.000			-5.454			-2.727
72201.000			-5.453			-2.727
72302.000			-5.454			-2.727
72400.000			-5.454			-2.727
72500.000			-5.454			-2.727
72601.000			-5.454			-2.727
72700.000			-5.454			-2.727
72801.000			-5.454			-2.727
72900.000			-5.454			-2.727
73001.000			-5.453			-2.726
73102.000			-5.453			-2.726
73200.000			-5.454			-2.727
73300.000			-5.453			-2.726
73401.000			-5.453			-2.727
73500.000			-5.453			-2.726
73600.000			-5.452			-2.726
73701.000			-5.453			-2.726
73801.000			-5.453			-2.727
73901.000			-5.453			-2.727
74001.000			-5.451			-2.726
74100.000			-5.452			-2.726
74200.000			-5.452			-2.726
74301.000			-5.452			-2.726
74400.000			-5.452			-2.726
74500.000			-5.452			-2.726
74602.000			-5.452			-2.726
74701.000			-5.451			-2.725
74800.000			-5.452			-2.726
74901.000			-5.451			-2.725
75000.000			-5.451			-2.725
75100.000			-5.451			-2.725
75201.000			-5.451			-2.726
75300.000			-5.451			-2.725
75401.000			-5.451			-2.725
75502.000			-5.450			-2.725
75600.000			-5.451			-2.725
75700.000			-5.450			-2.725
75801.000			-5.450			-2.725
75900.000			-5.451			-2.725
76001.000			-5.451			-2.725
76100.000			-5.450			-2.725
76201.000			-5.448			-2.724
76302.000			-5.448			-2.724
76401.000			-5.448			-2.724
76500.000			-5.449			-2.724
76601.000			-5.449			-2.724
76700.000			-5.448			-2.724
76800.000			-5.449			-2.724
76901.000			-5.449			-2.725
77000.000			-5.448			-2.724
77101.000			-5.448			-2.724
77202.000			-5.448			-2.724
77300.000			-5.448			-2.724
77400.000			-5.448			-2.724
77501.000			-5.447			-2.724
77600.000			-5.448			-2.724
77700.000			-5.447			-2.723
77801.000			-5.446			-2.723
77901.000			-5.447			-2.723
78001.000			-5.447			-2.724
78101.000			-5.446			-2.723
78200.000			-5.446			-2.723
78300.000			-5.447			-2.723
78401.000			-5.446			-2.723
78500.000			-5.446			-2.723
78600.000			-5.446			-2.723
78702.000			-5.446			-2.723
78801.000			-5.447			-2.723
78900.000			-5.446			-2.723
79001.000			-5.447			-2.723
79100.000			-5.446			-2.723
79201.000			-5.446			-2.723
79300.000			-5.445			-2.723
79400.000			-5.445			-2.723
79502.000			-5.445			-2.723
79601.000			-5.445			-2.723
79700.000			-5.445			-2.723
79801.000			-5.444			-2.722
79900.000			-5.445			-2.722
80000.000			-5.445			-2.722
80101.000			-5.444			-2.722
80200.000			-5.444			-2.722
80301.000			-5.444			-2.722
80402.000			-5.444			-2.722
80500.000			-5.445			-2.722
80600.000			-5.443			-2.722
80701.000			-5.444			-2.722
80800.000			-5.445			-2.722
80900.000			-5.444			-2.722
81001.000			-5.444			-2.722
81101.000			-5.444			-2.722
81201.000			-5.443			-2.722
81301.000			-5.443			-2.721
81400.000			-5.443			-2.722
81500.000			-5.443			-2.721
81601.000			-5.442			-2.721
81700.000			-5.443			-2.722
81800.000			-5.444			-2.722
81902.000			-5.443			-2.722
82001.000			-5.443			-2.721
82101.000			-5.443			-2.722
82201.000			-5.443			-2.721
82300.000			-5.442			-2.721
82401.000			-5.443			-2.721
82500.000			-5.443			-2.721
82600.000			-5.442			-2.721
82702.000			-5.442			-2.721
82801.000			-5.442			-2.721
82901.000			-5.442			-2.721
83001.000			-5.442			-2.721
83100.000			-5.442			-2.721
83200.000			-5.442			-2.721
83301.000			-5.441			-2.721
83400.000			-5.442			-2.721
83501.000			-5.441			-2.720
83602.000			-5.440			-2.720
83701.000			-5.441			-2.720
83800.000			-5.440			-2.720
83901.000			-5.440			-2.720
84000.000			-5.441			-2.720
84100.000			-5.440			-2.720
84201.000			-5.441			-2.720
84301.000			-5.440			-2.720
84401.000			-5.440			-2.720
84501.000			-5.440			-2.720
84600.000			-5.441			-2.721
84700.000			-5.441			-2.720
84801.000			-5.441			-2.720
84900.000			-5.440			-2.720
85000.000			-5.439			-2.719
85102.000			-5.439			-2.719
85201.000			-5.439			-2.719
85300.000			-5.439			-2.719
85401.000			-5.439			-2.719
85500.000			-5.438			-2.719
85601.000			-5.439			-2.720
85700.000			-5.439			-2.720
85800.000			-5.438			-2.719
85901.000			-5.438			-2.719
86001.000			-5.438			-2.719
86101.000			-5.438			-2.719
86201.000			-5.438			-2.719
86300.000			-5.437			-2.719
86400.000			-5.437			-2.719
86501.000			-5.438			-2.719
86600.000			-5.438			-2.719
86700.000			-5.437			-2.719
86802.000			-5.437			-2.718
86901.000			-5.438			-2.719
87000.000			-5.438			-2.719
87101.000			-5.436			-2.718
87200.000			-5.437			-2.718
87300.000			-5.436			-2.718
87401.000			-5.436			-2.718
87500.000			-5.436			-2.718
87601.000			-5.436			-2.718
87702.000			-5.436			-2.718
87800.000			-5.436			-2.718
87900.000			-5.437			-2.719
88001.000			-5.436			-2.718
88100.000			-5.436			-2.718
88200.000			-5.436			-2.718
88301.000			-5.435			-2.718
88401.000			-5.435			-2.718
88501.000			-5.436			-2.718
88601.000			-5.437			-2.718
88700.000			-5.435			-2.718
88801.000			-5.435			-2.717
88900.000			-5.434			-2.717
89000.000			-5.434			-2.717
89101.000			-5.435			-2.717
89200.000			-5.435			-2.718
89301.000			-5.435			-2.717
89402.000			-5.434			-2.717
89500.000			-5.435			-2.717
89600.000			-5.435			-2.718
89701.000			-5.435			-2.717
89800.000			-5.435			-2.718
89900.000			-5.435			-2.717
90001.000			-5.434			-2.717
90101.000			-5.434			-2.717
90201.000			-5.434			-2.717
90301.000			-5.433			-2.717
90400.000			-5.434			-2.717
90500.000			-5.434			-2.717
90601.000			-5.433			-2.717
90700.000			-5.434			-2.717
90800.000			-5.432			-2.716
90902.000			-5.433			-2.716
91001.000			-5.433			-2.716
91100.000			-5.433			-2.716
91201.000			-5.433			-2.716
91300.000			-5.433			-2.717
91400.000			-5.433			-2.717
91501.000			-5.433			-2.716
91600.000			-5.433			-2.716
91701.000			-5.432			-2.716
91802.000			-5.432			-2.716
91900.000			-5.432			-2.716
92001.000			-5.432			-2.716
92100.000			-5.431			-2.716
92200.000			-5.432			-2.716
92301.000			-5.432			-2.716
92400.000			-5.431			-2.716
92501.000			-5.431			-2.716
92602.000			-5.431			-2.715
92700.000			-5.430			-2.715
92800.000			-5.431			-2.716
92901.000			-5.432			-2.716
93000.000			-5.431			-2.716
93100.000			-5.431			-2.715
93201.000			-5.431			-2.715
93301.000			-5.431			-2.715
93401.000			-5.431			-2.715
93501.000			-5.431			-2.715
93600.000			-5.432			-2.716
93700.000			-5.430			-2.715
93801.000			-5.431			-2.715
93900.000			-5.431			-2.716
94000.000			-5.431			-2.716
94102.000			-5.430			-2.715
94201.000			-5.430			-2.715
94300.000			-5.430			-2.715
94401.000			-5.429			-2.715
94500.000			-5.430			-2.715
94600.000			-5.430			-2.715
94701.000			-5.429			-2.715
94800.000			-5.429			-2.714
94901.000			-5.429			-2.715
95002.000			-5.429			-2.715
95100.000			-5.429			-2.714
95201.000			-5.429			-2.715
95300.000			-5.430			-2.715
95400.000			-5.429			-2.715
95501.000			-5.429			-2.715
95600.000			-5.429			-2.715
95701.000			-5.428			-2.714
95802.000			-5.428			-2.714
95900.000			-5.429			-2.714
96000.000			-5.428			-2.714
96101.000			-5.427			-2.714
96200.000			-5.426			-2.713
96300.000			-5.428			-2.714
96401.000			-5.429			-2.714
96501.000			-5.428			-2.714
96601.000			-5.428			-2.714
96701.000			-5.427			-2.714
96800.000			-5.426			-2.713
96900.000			-5.427			-2.714
97001.000			-5.428			-2.714
97100.000			-5.428			-2.714
97200.000			-5.428			-2.714
97302.000			-5.427			-2.714
97401.000			-5.426			-2.713
97501.000			-5.427			-2.713
97601.000			-5.427			-2.713
97700.000			-5.427			-2.713
97800.000			-5.426			-2.713
97901.000			-5.426			-2.713
98000.000			-5.427			-2.713
98100.000			-5.426			-2.713
98202.000			-5.425			-2.713
98301.000			-5.427			-2.713
98401.000			-5.427			-2.713
98500.000			-5.426			-2.713
98600.000			-5.425			-2.713
98701.000			-5.426			-2.713
98800.000			-5.427			-2.713
98900.000			-5.426			-2.713
99002.000			-5.425			-2.713
99101.000			-5.425			-2.712
99200.000			-5.426			-2.713
99301.000			-5.425			-2.713
99400.000			-5.425			-2.713
99500.000			-5.425			-2.713
99601.000			-5.425			-2.712
99700.000			-5.424			-2.712
99800.000			-5.423			-2.712
99902.000			-5.424			-2.712
100001.000			-5.426			-2.713
100100.000			-5.425			-2.713
100201.000			-5.425			-2.713
100300.000			-5.425			-2.712
100400.000			-5.424			-2.712
100501.000			-5.424			-2.712
100600.000			-5.424			-2.712
100701.000			-5.425			-2.712
100802.000			-5.425			-2.712
100900.000			-5.425			-2.712
101000.000			-5.424			-2.712
101101.000			-5.424			-2.712
101200.000			-5.423			-2.712
101300.000			-5.423			-2.711
101401.000			-5.423			-2.711
101501.000			-5.423			-2.712
101602.000			-5.423			-2.712
101700.000			-5.423			-2.711
101800.000			-5.423			-2.712
101901.000			-5.424			-2.712
102000.000			-5.424			-2.712
102100.000			-5.424			-2.712
102201.000			-5.423			-2.711
102301.000			-5.423			-2.711
102401.000			-5.423			-2.712
102501.000			-5.423			-2.711
102600.000			-5.424			-2.712
102700.000			-5.423			-2.712
102801.000			-5.423			-2.712
102900.000			-5.422			-2.711
103000.000			-5.422			-2.711
103102.000			-5.421			-2.711
103201.000			-5.422			-2.711
103300.000			-5.423			-2.711
103401.000			-5.422			-2.711
103500.000			-5.421			-2.711
103600.000			-5.421			-2.711
103701.000			-5.422			-2.711
103800.000			-5.421			-2.711
103901.000			-5.422			-2.711
104002.000			-5.421			-2.711
104100.000			-5.421			-2.711
104200.000			-5.422			-2.711
104301.000			-5.422			-2.711
104400.000			-5.422			-2.711
104500.000			-5.421			-2.711
104601.000			-5.421			-2.711
104701.000			-5.420			-2.710
104802.000			-5.419			-2.710
104900.000			-5.420			-2.710
105000.000			-5.421			-2.711
105101.000			-5.421			-2.710
105200.000			-5.421			-2.711
105300.000			-5.420			-2.710
105401.000			-5.420			-2.710
105501.000			-5.419			-2.710
105601.000			-5.420			-2.710
105701.000			-5.420			-2.710
105800.000			-5.420			-2.710
105900.000			-5.421			-2.710
106001.000			-5.420			-2.710
106100.000			-5.420			-2.710
106200.000			-5.420			-2.710
106302.000			-5.420			-2.710
106401.000			-5.419			-2.710
106500.000			-5.419			-2.710
106601.000			-5.419			-2.710
106700.000			-5.419			-2.709
106800.000			-5.420			-2.710
106901.000			-5.419			-2.710
107000.000			-5.419			-2.709
107100.000			-5.419			-2.710
107202.000			-5.419			-2.709
107301.000			-5.419			-2.709
107400.000			-5.418			-2.709
107501.000			-5.418			-2.709
107600.000			-5.418			-2.709
107700.000			-5.419			-2.710
107801.000			-5.419			-2.710
107900.000			-5.419			-2.710
108002.000			-5.418			-2.709
108101.000			-5.418			-2.709
108200.000			-5.418			-2.709
108301.000			-5.418			-2.709
108400.000			-5.419			-2.710
108500.000			-5.419			-2.709
108601.000			-5.418			-2.709
108700.000			-5.418			-2.709
108801.000			-5.418			-2.709
108902.000			-5.418			-2.709
109001.000			-5.418			-2.709
109100.000			-5.417			-2.709
109201.000			-5.417			-2.708
109300.000			-5.418			-2.709
109400.000			-5.417			-2.708
109501.000			-5.417			-2.709
109600.000			-5.417			-2.709
109701.000			-5.416			-2.708
109802.000			-5.418			-2.709
109900.000			-5.418			-2.709
110000.000			-5.417			-2.708
110101.000			-5.417			-2.709
110200.000			-5.417			-2.708
110300.000			-5.416			-2.708
110401.000			-5.416			-2.708
110501.000			-5.416			-2.708
110601.000			-5.416			-2.708
110701.000			-5.416			-2.708
110800.000			-5.415			-2.708
110900.000			-5.415			-2.708
111001.000			-5.416			-2.708
111100.000			-5.416			-2.708
111201.000			-5.415			-2.707
111301.000			-5.416			-2.708
111401.000			-5.415			-2.708
111501.000			-5.415			-2.707
111600.000			-5.416			-2.708
111700.000			-5.415			-2.708
111801.000			-5.415			-2.707
111900.000			-5.416			-2.708
112000.000			-5.416			-2.708
112102.000			-5.415			-2.708
112201.000			-5.414			-2.707
112300.000			-5.414			-2.707
112401.000			-5.415			-2.707
112500.000			-5.416			-2.708
112600.000			-5.415			-2.708
112701.000			-5.414			-2.707
112800.000			-5.414			-2.707
112901.000			-5.414			-2.707
113002.000			-5.414			-2.707
113100.000			-5.413			-2.707
113200.000			-5.413			-2.707
113301.000			-5.414			-2.707
113400.000			-5.415			-2.707
113500.000			-5.415			-2.707
113601.000			-5.414			-2.707
113701.000			-5.414			-2.707
113801.000			-5.413			-2.707
113901.000			-5.413			-2.707
114000.000			-5.413			-2.706
114100.000			-5.413			-2.707
114201.000			-5.413			-2.707
114300.000			-5.413			-2.706
114401.000			-5.412			-2.706
114501.000			-5.412			-2.706
114601.000			-5.413			-2.706
114701.000			-5.413			-2.706
114800.000			-5.413			-2.706
114900.000			-5.412			-2.706
115001.000			-5.412			-2.706
115100.000			-5.412			-2.706
115200.000			-5.412			-2.706
115302.000			-5.412			-2.706
115401.000			-5.412			-2.706
115500.000			-5.412			-2.706
115601.000			-5.413			-2.706
115700.000			-5.412			-2.706
115800.000			-5.412			-2.706
115901.000			-5.411			-2.706
116000.000			-5.411			-2.706
116101.000			-5.412			-2.706
116202.000			-5.412			-2.706
116300.000			-5.412			-2.706
116400.000			-5.413			-2.706
116501.000			-5.412			-2.706
116600.000			-5.411			-2.705
116700.000			-5.411			-2.706
116801.000			-5.411			-2.706
116901.000			-5.411			-2.705
117001.000			-5.411			-2.705
117101.000			-5.410			-2.705
117200.000			-5.410			-2.705
117300.000			-5.410			-2.705
117401.000			-5.409			-2.705
117500.000			-5.409			-2.705
117601.000			-5.410			-2.705
117701.000			-5.410			-2.705
117801.000			-5.410			-2.705
117901.000			-5.411			-2.706
118000.000			-5.411			-2.705
118100.000			-5.410			-2.705
118201.000			-5.410			-2.705
118300.000			-5.410			-2.705
118400.000			-5.410			-2.705
118502.000			-5.410			-2.705
118601.000			-5.409			-2.705
118700.000			-5.410			-2.705
118801.000			-5.410			-2.705
118900.000			-5.410			-2.705
119000.000			-5.411			-2.705
119101.000			-5.410			-2.705
119200.000			-5.409			-2.705
119300.000			-5.410			-2.705
119402.000			-5.410			-2.705
119501.000			-5.410			-2.705
119600.000			-5.410			-2.705
119701.000			-5.409			-2.705
119800.000			-5.409			-2.705
119900.000			-5.409			-2.704
120001.000			-5.409			-2.705
120100.000			-5.409			-2.705
120201.000			-5.409			-2.704
120302.000			-5.408			-2.704
120400.000			-5.409			-2.704
120500.000			-5.409			-2.704
120601.000			-5.409			-2.704
120700.000			-5.408			-2.704
120801.000			-5.408			-2.704
120900.000			-5.407			-2.704
121001.000			-5.408			-2.704
121102.000			-5.408			-2.704
121201.000			-5.408			-2.704
121300.000			-5.408			-2.704
121401.000			-5.407			-2.704
121500.000			-5.408			-2.704
121600.000			-5.407			-2.704
121701.000			-5.407			-2.704
121801.000			-5.408			-2.704
121901.000			-5.407			-2.704
122002.000			-5.407			-2.704
122100.000			-5.408			-2.704
122200.000			-5.408			-2.704
122301.000			-5.406			-2.703
122400.000			-5.406			-2.703
122500.000			-5.407			-2.704
122601.000			-5.407			-2.704
122701.000			-5.407			-2.704
122801.000			-5.408			-2.704
122901.000			-5.406			-2.703
123000.000			-5.406			-2.703
123100.000			-5.407			-2.703
123201.000			-5.406			-2.703
123300.000			-5.406			-2.703
123400.000			-5.407			-2.703
123502.000			-5.407			-2.703
123601.000			-5.407			-2.703
123700.000			-5.407			-2.704
123801.000			-5.406			-2.703
123900.000			-5.406			-2.703
124001.000			-5.406			-2.703
124100.000			-5.407			-2.704
124200.000			-5.407			-2.703
124302.000			-5.406			-2.703
124401.000			-5.405			-2.702
124501.000			-5.405			-2.703
124601.000			-5.405			-2.702
124700.000			-5.405			-2.703
124800.000			-5.405			-2.703
124901.000			-5.406			-2.703
125000.000			-5.405			-2.703
125100.000			-5.404			-2.702
125202.000			-5.405			-2.702
125301.000			-5.406			-2.703
125400.000			-5.405			-2.702
125501.000			-5.405			-2.702
125600.000			-5.405			-2.703
125700.000			-5.405			-2.702
125801.000			-5.404			-2.702
125900.000			-5.404			-2.702
126001.000			-5.404			-2.702
126102.000			-5.405			-2.702
126201.000			-5.405			-2.702
126300.000			-5.404			-2.702
126401.000			-5.403			-2.702
126500.000			-5.404			-2.702
126600.000			-5.403			-2.701
126701.000			-5.404			-2.702
126801.000			-5.404			-2.702
126901.000			-5.404			-2.702
127002.000			-5.404			-2.702
127100.000			-5.404			-2.702
127201.000			-5.403			-2.702
127300.000			-5.403			-2.702
127400.000			-5.403			-2.702
127501.000			-5.403			-2.701
127600.000			-5.403			-2.702
127701.000			-5.402			-2.701
127802.000			-5.403			-2.701
127900.000			-5.404			-2.702
128000.000			-5.404			-2.702
128101.000			-5.403			-2.702
128200.000			-5.403			-2.702
128300.000			-5.403			-2.702
128401.000			-5.403			-2.702
128501.000			-5.403			-2.701
128601.000			-5.402			-2.701
128701.000			-5.402			-2.701
128800.000			-5.402			-2.701
128900.000			-5.402			-2.701
129001.000			-5.403			-2.701
129100.000			-5.403			-2.701
129200.000			-5.403			-2.701
129302.000			-5.402			-2.701
129401.000			-5.402			-2.701
129500.000			-5.401			-2.701
129601.000			-5.402			-2.701
129700.000			-5.402			-2.701
129800.000			-5.403			-2.701
129901.000			-5.402			-2.701
130000.000			-5.401			-2.700
130100.000			-5.401			-2.700
130202.000			-5.401			-2.701
130301.000			-5.401			-2.701
130401.000			-5.401			-2.700
130500.000			-5.401			-2.700
130600.000			-5.400			-2.700
130701.000			-5.400			-2.700
130800.000			-5.401			-2.700
130900.000			-5.401			-2.700
131002.000			-5.400			-2.700
131101.000			-5.400			-2.700
131200.000			-5.401			-2.700
131301.000			-5.400			-2.700
131400.000			-5.401			-2.700
131500.000			-5.400			-2.700
131601.000			-5.401			-2.700
131700.000			-5.401			-2.701
131801.000			-5.402			-2.701
131902.000			-5.401			-2.700
132000.000			-5.400			-2.700
132100.000			-5.400			-2.700
132201.000			-5.400			-2.700
132300.000			-5.401			-2.700
132400.000			-5.400			-2.700
132501.000			-5.401			-2.701
132600.000			-5.401			-2.700
132701.000			-5.400			-2.700
132802.000			-5.399			-2.700
132901.000			-5.400			-2.700
133000.000			-5.398			-2.699
133101.000			-5.399			-2.699
133200.000			-5.399			-2.699
133300.000			-5.399			-2.700
133401.000			-5.399			-2.700
133500.000			-5.399			-2.699
133601.000			-5.398			-2.699
133701.000			-5.398			-2.699
133801.000			-5.399			-2.699
133901.000			-5.399			-2.699
134000.000			-5.399			-2.699
134100.000			-5.399			-2.700
134201.000			-5.399			-2.700
134300.000			-5.399			-2.700
134400.000			-5.399			-2.699
134501.000			-5.399			-2.700
134601.000			-5.398			-2.699
134701.000			-5.398			-2.699
134801.000			-5.398			-2.699
134900.000			-5.396			-2.698
135000.000			-5.397			-2.699
135101.000			-5.398			-2.699
135200.000			-5.397			-2.699
135300.000			-5.397			-2.698
135401.000			-5.398			-2.699
135501.000			-5.399			-2.699
135601.000			-5.398			-2.699
135702.000			-5.398			-2.699
135800.000			-5.398			-2.699
135900.000			-5.397			-2.699
136001.000			-5.397			-2.698
136100.000			-5.397			-2.699
136200.000			-5.397			-2.699
136301.000			-5.397			-2.698
136400.000			-5.398			-2.699
136501.000			-5.398			-2.699
136602.000			-5.396			-2.698
136701.000			-5.396			-2.698
136801.000			-5.397			-2.698
136900.000			-5.398			-2.699
137000.000			-5.397			-2.698
137101.000			-5.396			-2.698
137200.000			-5.396			-2.698
137300.000			-5.397			-2.699
137401.000			-5.397			-2.699
137501.000			-5.396			-2.698
137601.000			-5.396			-2.698
137701.000			-5.397			-2.698
137800.000			-5.397			-2.699
137900.000			-5.396			-2.698
138001.000			-5.396			-2.698
138100.000			-5.396			-2.698
138200.000			-5.395			-2.698
138301.000			-5.395			-2.697
138401.000			-5.395			-2.698
138501.000			-5.396			-2.698
138602.000			-5.396			-2.698
138700.000			-5.396			-2.698
138800.000			-5.396			-2.698
138901.000			-5.395			-2.698
139000.000			-5.396			-2.698
139100.000			-5.396			-2.698
139201.000			-5.396			-2.698
139300.000			-5.395			-2.697
139401.000			-5.395			-2.697
139502.000			-5.396			-2.698
139600.000			-5.396			-2.698
139700.000			-5.395			-2.697
139801.000			-5.394			-2.697
139900.000			-5.395			-2.698
140001.000			-5.395			-2.697
140100.000			-5.395			-2.697
140200.000			-5.394			-2.697
140302.000			-5.394			-2.697
140401.000			-5.394			-2.697
140501.000			-5.394			-2.697
140601.000			-5.394			-2.697
140700.000			-5.394			-2.697
140800.000			-5.394			-2.697
140901.000			-5.394			-2.697
141000.000			-5.394			-2.697
141100.000			-5.393			-2.697
141202.000			-5.393			-2.696
141301.000			-5.393			-2.696
141401.000			-5.393			-2.697
141501.000			-5.393			-2.697
141600.000			-5.394			-2.697
141700.000			-5.394			-2.697
141801.000			-5.395			-2.698
141900.000			-5.394			-2.697
142000.000			-5.393			-2.696
142101.000			-5.393			-2.696
142201.000			-5.394			-2.697
142301.000			-5.394			-2.697
142401.000			-5.393			-2.697
142500.000			-5.392			-2.696
142600.000			-5.393			-2.696
142701.000			-5.393			-2.697
142800.000			-5.394			-2.697
142900.000			-5.394			-2.697
143001.000			-5.393			-2.696
143101.000			-5.393			-2.696
143202.000			-5.394			-2.697
143300.000			-5.393			-2.696
143400.000			-5.393			-2.697
143501.000			-5.393			-2.697
143600.000			-5.393			-2.696
143700.000			-5.392			-2.696
143801.000			-5.392			-2.696
143900.000			-5.392			-2.696
144001.000			-5.392			-2.696
144102.000			-5.393			-2.696
144200.000			-5.392			-2.696
144300.000			-5.392			-2.696
144401.000			-5.392			-2.696
144500.000			-5.392			-2.696
144600.000			-5.392			-2.696
144701.000			-5.392			-2.696
144800.000			-5.392			-2.696
144901.000			-5.392			-2.696
145002.000			-5.391			-2.696
145101.000			-5.391			-2.695
145200.000			-5.391			-2.695
145301.000			-5.391			-2.696
145400.000			-5.392			-2.696
145500.000			-5.392			-2.696
145601.000			-5.391			-2.696
145700.000			-5.391			-2.696
145800.000			-5.391			-2.695
145902.000			-5.390			-2.695
146001.000			-5.391			-2.696
146100.000			-5.392			-2.696
146201.000			-5.391			-2.695
146300.000			-5.391			-2.695
146401.000			-5.392			-2.696
146500.000			-5.391			-2.695
146600.000			-5.389			-2.695
146701.000			-5.391			-2.695
146801.000			-5.391			-2.696
146901.000			-5.390			-2.695
147001.000			-5.390			-2.695
147100.000			-5.390			-2.695
147200.000			-5.391			-2.696
147301.000			-5.391			-2.695
147400.000			-5.391			-2.695
147500.000			-5.391			-2.696
147601.000			-5.390			-2.695
147701.000			-5.389			-2.694
147801.000			-5.390			-2.695
147902.000			-5.389			-2.695
148000.000			-5.390			-2.695
148100.000			-5.391			-2.695
148201.000			-5.390			-2.695
148300.000			-5.390			-2.695
148400.000			-5.390			-2.695
148501.000			-5.390			-2.695
148600.000			-5.390			-2.695
148701.000			-5.390			-2.695
148802.000			-5.389			-2.695
148900.000			-5.389			-2.695
149000.000			-5.389			-2.694
149101.000			-5.389			-2.694
149200.000			-5.388			-2.694
149300.000			-5.389			-2.695
149401.000			-5.388			-2.694
149500.000			-5.388			-2.694
149601.000			-5.389			-2.694
149701.000			-5.389			-2.695
149801.000			-5.389			-2.694
149901.000			-5.389			-2.695
150000.000			-5.388			-2.694
150100.000			-5.389			-2.694
150201.000			-5.389			-2.694
150300.000			-5.389			-2.695
150400.000			-5.389			-2.695
150501.000			-5.389			-2.694
150601.000			-5.389			-2.695
150701.000			-5.390			-2.695
150801.000			-5.390			-2.695
150900.000			-5.389			-2.694
151000.000			-5.388			-2.694
151101.000			-5.389			-2.694
151200.000			-5.388			-2.694
151300.000			-5.389			-2.694
151401.000			-5.389			-2.694
151501.000			-5.389			-2.695
151601.000			-5.389			-2.695
151702.000			-5.388			-2.694
151800.000			-5.388			-2.694
151900.000			-5.388			-2.694
152001.000			-5.388			-2.694
152100.000			-5.389			-2.695
152200.000			-5.387			-2.694
152301.000			-5.387			-2.694
152400.000			-5.387			-2.694
152501.000			-5.387			-2.694
152602.000			-5.387			-2.694
152700.000			-5.388			-2.694
152801.000			-5.388			-2.694
152900.000			-5.388			-2.694
153000.000			-5.386			-2.693
153101.000			-5.387			-2.693
153200.000			-5.388			-2.694
153300.000			-5.387			-2.693
153402.000			-5.388			-2.694
153501.000			-5.388			-2.694
153601.000			-5.387			-2.694
153701.000			-5.386			-2.693
153800.000			-5.387			-2.694
153900.000			-5.387			-2.694
154001.000			-5.387			-2.694
154100.000			-5.388			-2.694
154200.000			-5.387			-2.694
154302.000			-5.387			-2.693
154401.000			-5.386			-2.693
154501.000			-5.386			-2.693
154601.000			-5.387			-2.693
154700.000			-5.387			-2.693
154800.000			-5.387			-2.693
154901.000			-5.387			-2.694
155000.000			-5.386			-2.693
155100.000			-5.387			-2.693
155201.000			-5.387			-2.694
155301.000			-5.387			-2.693
155401.000			-5.386			-2.693
155501.000			-5.385			-2.693
155600.000			-5.384			-2.692
155700.000			-5.385			-2.692
155801.000			-5.386			-2.693
155900.000			-5.386			-2.693
156001.000			-5.387			-2.693
156100.000			-5.386			-2.693
156201.000			-5.386			-2.693
156302.000			-5.386			-2.693
156401.000			-5.385			-2.693
156500.000			-5.386			-2.693
156601.000			-5.385			-2.693
156700.000			-5.385			-2.693
156800.000			-5.386			-2.693
156901.000			-5.386			-2.693
157000.000			-5.386			-2.693
157100.000			-5.386			-2.693
157202.000			-5.386			-2.693
157301.000			-5.386			-2.693
157400.000			-5.385			-2.693
157501.000			-5.385			-2.693
157600.000			-5.385			-2.692
157700.000			-5.385			-2.692
157801.000			-5.385			-2.692
157900.000			-5.385			-2.693
158000.000			-5.385			-2.692
158101.000			-5.384			-2.692
158201.000			-5.384			-2.692
158301.000			-5.385			-2.692
158401.000			-5.385			-2.692
158500.000			-5.384			-2.692
158600.000			-5.385			-2.692
158701.000			-5.384			-2.692
158800.000			-5.384			-2.692
158900.000			-5.384			-2.692
159001.000			-5.385			-2.692
159101.000			-5.384			-2.692
159202.000			-5.384			-2.692
159301.000			-5.385			-2.693
159400.000			-5.385			-2.692
159501.000			-5.384			-2.692
159600.000			-5.384			-2.692
159700.000			-5.384			-2.692
159801.000			-5.383			-2.691
159900.000			-5.383			-2.691
160000.000			-5.382			-2.691
160102.000			-5.383			-2.691
160201.000			-5.384			-2.692
160300.000			-5.383			-2.692
160401.000			-5.383			-2.691
160500.000			-5.383			-2.691
160600.000			-5.383			-2.692
160701.000			-5.383			-2.692
160800.000			-5.383			-2.692
160900.000			-5.383			-2.692
161002.000			-5.383			-2.691
161101.000			-5.383			-2.692
161200.000			-5.382			-2.691
161301.000			-5.382			-2.691
161400.000			-5.383			-2.692
161500.000			-5.383			-2.692
161601.000			-5.382			-2.691
161700.000			-5.382			-2.691
161800.000			-5.382			-2.691
161902.000			-5.383			-2.692
162001.000			-5.384			-2.692
162100.000			-5.383			-2.692
162201.000			-5.383			-2.691
162300.000			-5.383			-2.691
162401.000			-5.384			-2.692
162500.000			-5.383			-2.692
162600.000			-5.383			-2.691
162701.000			-5.382			-2.691
162801.000			-5.381			-2.691
162901.000			-5.381			-2.691
163001.000			-5.383			-2.691
163100.000			-5.382			-2.691
163200.000			-5.382			-2.691
163301.000			-5.381			-2.691
163400.000			-5.381			-2.691
163500.000			-5.382			-2.691
163601.000			-5.382			-2.691
163701.000			-5.382			-2.691
163801.000			-5.382			-2.691
163901.000			-5.381			-2.690
164000.000			-5.381			-2.691
164100.000			-5.381			-2.690
164201.000			-5.380			-2.690
164300.000			-5.381			-2.691
164400.000			-5.381			-2.691
164501.000			-5.381			-2.690
164601.000			-5.381			-2.691
164701.000			-5.381			-2.690
164801.000			-5.380			-2.690
164900.000			-5.380			-2.690
165000.000			-5.381			-2.690
165101.000			-5.381			-2.690
165200.000			-5.380			-2.690
165300.000			-5.381			-2.690
165401.000			-5.380			-2.690
165501.000			-5.379			-2.690
165602.000			-5.380			-2.690
165701.000			-5.381			-2.690
165800.000			-5.381			-2.690
165901.000			-5.381			-2.690
166000.000			-5.381			-2.690
166100.000			-5.380			-2.690
166201.000			-5.380			-2.690
166300.000			-5.381			-2.690
166400.000			-5.381			-2.691
166502.000			-5.381			-2.690
166601.000			-5.380			-2.690
166700.000			-5.379			-2.690
166801.000			-5.380			-2.690
166900.000			-5.380			-2.690
167000.000			-5.380			-2.690
167101.000			-5.380			-2.690
167200.000			-5.380			-2.690
167300.000			-5.381			-2.690
167402.000			-5.380			-2.690
167501.000			-5.379			-2.689
167601.000			-5.378			-2.689
167701.000			-5.378			-2.689
167800.000			-5.378			-2.689
167900.000			-5.379			-2.689
168001.000			-5.380			-2.690
168100.000			-5.380			-2.690
168200.000			-5.379			-2.689
168301.000			-5.378			-2.689
168401.000			-5.379			-2.689
168501.000			-5.378			-2.689
168602.000			-5.378			-2.689
168700.000			-5.378			-2.689
168801.000			-5.378			-2.689
168900.000			-5.379			-2.689
169000.000			-5.379			-2.689
169101.000			-5.379			-2.689
169200.000			-5.379			-2.690
169300.000			-5.379			-2.689
169402.000			-5.378			-2.689
169501.000			-5.378			-2.689
169601.000			-5.378			-2.689
169701.000			-5.378			-2.689
169800.000			-5.378			-2.689
169900.000			-5.379			-2.689
170001.000			-5.378			-2.689
170100.000			-5.378			-2.689
170200.000			-5.378			-2.689
170301.000			-5.378			-2.689
170401.000			-5.378			-2.689
170501.000			-5.379			-2.689
170601.000			-5.378			-2.689
170700.000			-5.378			-2.689
170800.000			-5.378			-2.689
170901.000			-5.378			-2.689
171000.000			-5.377			-2.689
171100.000			-5.377			-2.689
171201.000			-5.377			-2.689
171301.000			-5.378			-2.689
171401.000			-5.377			-2.689
171502.000			-5.377			-2.688
171600.000			-5.377			-2.689
171700.000			-5.377			-2.688
171801.000			-5.376			-2.688
171900.000			-5.376			-2.688
172001.000			-5.377			-2.688
172100.000			-5.377			-2.688
172200.000			-5.376			-2.688
172302.000			-5.377			-2.688
172401.000			-5.377			-2.689
172500.000			-5.377			-2.689
172601.000			-5.376			-2.688
172700.000			-5.376			-2.688
172800.000			-5.376			-2.688
172901.000			-5.376			-2.688
173000.000			-5.376			-2.688
173100.000			-5.376			-2.688
173202.000			-5.376			-2.688
173301.000			-5.377			-2.688
173401.000			-5.376			-2.688
173501.000			-5.376			-2.688
173600.000			-5.376			-2.688
173700.000			-5.376			-2.688
173801.000			-5.376			-2.688
173900.000			-5.377			-2.689
174000.000			-5.376			-2.688
174101.000			-5.376			-2.688
174201.000			-5.376			-2.688
174301.000			-5.376			-2.688
174401.000			-5.376			-2.688
174500.000			-5.375			-2.688
174600.000			-5.375			-2.687
174701.000			-5.376			-2.688
174800.000			-5.375			-2.688
174900.000			-5.375			-2.688
175001.000			-5.375			-2.687
175101.000			-5.375			-2.688
175202.000			-5.375			-2.688
175300.000			-5.376			-2.688
175400.000			-5.375			-2.688
175501.000			-5.375			-2.687
175600.000			-5.375			-2.688
175700.000			-5.375			-2.687
175801.000			-5.374			-2.687
175900.000			-5.375			-2.687
176000.000			-5.375			-2.688
176102.000			-5.375			-2.687
176201.000			-5.374			-2.687
176300.000			-5.375			-2.687
176401.000			-5.374			-2.687
176500.000			-5.374			-2.687
176600.000			-5.373			-2.687
176701.000			-5.373			-2.687
176800.000			-5.374			-2.687
176900.000			-5.373			-2.687
177002.000			-5.374			-2.687
177101.000			-5.374			-2.687
177200.000			-5.374			-2.687
177301.000			-5.373			-2.687
177400.000			-5.374			-2.687
177500.000			-5.374			-2.687
177601.000			-5.375			-2.687
177700.000			-5.375			-2.687
177800.000			-5.373			-2.687
177902.000			-5.373			-2.686
178001.000			-5.374			-2.687
178101.000			-5.373			-2.687
178201.000			-5.373			-2.687
178300.000			-5.373			-2.687
178401.000			-5.373			-2.686
178500.000			-5.373			-2.687
178600.000			-5.373			-2.687
178701.000			-5.371			-2.686
178800.000			-5.372			-2.686
178901.000			-5.373			-2.687
179002.000			-5.373			-2.687
179101.000			-5.372			-2.686
179200.000			-5.373			-2.686
179301.000			-5.372			-2.686
179400.000			-5.373			-2.687
179500.000			-5.373			-2.687
179601.000			-5.374			-2.687
179700.000			-5.374			-2.687
179800.000			-5.374			-2.687
179902.000			-5.373			-2.687
180001.000			-5.372			-2.686
180100.000			-5.372			-2.686
180201.000			-5.372			-2.686
180300.000			-5.373			-2.686
180400.000			-5.373			-2.686
180501.000			-5.373			-2.686
180600.000			-5.372			-2.686
180700.000			-5.371			-2.686
180802.000			-5.372			-2.686
180901.000			-5.372			-2.686
181000.000			-5.372			-2.686
181101.000			-5.371			-2.686
181200.000			-5.372			-2.686
181300.000			-5.373			-2.686
181401.000			-5.372			-2.686
181500.000			-5.371			-2.686
181601.000			-5.370			-2.685
181701.000			-5.370			-2.685
181801.000			-5.370			-2.685
181901.000			-5.371			-2.686
182000.000			-5.372			-2.686
182100.000			-5.372			-2.686
182201.000			-5.371			-2.686
182300.000			-5.371			-2.686
182400.000			-5.372			-2.686
182501.000			-5.372			-2.686
182601.000			-5.371			-2.686
182701.000			-5.370			-2.685
182801.000			-5.370			-2.685
182900.000			-5.371			-2.686
183000.000			-5.371			-2.686
183101.000			-5.370			-2.685
183200.000			-5.370			-2.685
183300.000			-5.371			-2.685
183401.000			-5.371			-2.685
183501.000			-5.370			-2.685
183601.000			-5.370			-2.685
183701.000			-5.370			-2.685
183800.000			-5.370			-2.685
183900.000			-5.371			-2.685
184001.000			-5.371			-2.685
184100.000			-5.370			-2.685
184200.000			-5.370			-2.685
184301.000			-5.370			-2.685
184401.000			-5.371			-2.685
184501.000			-5.371			-2.685
184601.000			-5.371			-2.686
184700.000			-5.369			-2.685
184801.000			-5.369			-2.684
184900.000			-5.369			-2.684
185000.000			-5.369			-2.684
185101.000			-5.369			-2.685
185200.000			-5.369			-2.684
185300.000			-5.369			-2.685
185402.000			-5.369			-2.685
185501.000			-5.369			-2.685
185600.000			-5.370			-2.685
185701.000			-5.369			-2.684
185800.000			-5.369			-2.684
185900.000			-5.368			-2.684
186001.000			-5.369			-2.685
186100.000			-5.369			-2.684
186200.000			-5.369			-2.684
186302.000			-5.369			-2.685
186401.000			-5.369			-2.685
186501.000			-5.369			-2.684
186601.000			-5.368			-2.684
186700.000			-5.369			-2.685
186800.000			-5.369			-2.684
186901.000			-5.369			-2.684
187000.000			-5.369			-2.684
187100.000			-5.369			-2.684
187201.000			-5.369			-2.684
187301.000			-5.369			-2.684
187401.000			-5.368			-2.684
187502.000			-5.369			-2.684
187600.000			-5.369			-2.685
187700.000			-5.369			-2.684
187801.000			-5.368			-2.684
187900.000			-5.369			-2.684
188001.000			-5.368			-2.684
188100.000			-5.368			-2.684
188200.000			-5.368			-2.684
188302.000			-5.369			-2.684
188401.000			-5.369			-2.684
188501.000			-5.369			-2.684
188601.000			-5.369			-2.684
188700.000			-5.368			-2.684
188800.000			-5.369			-2.684
188901.000			-5.368			-2.684
189000.000			-5.368			-2.684
189100.000			-5.368			-2.684
189201.000			-5.368			-2.684
189301.000			-5.368			-2.684
189401.000			-5.368			-2.684
189501.000			-5.368			-2.684
189600.000			-5.368			-2.684
189700.000			-5.367			-2.683
189801.000			-5.367			-2.684
189900.000			-5.367			-2.684
190000.000			-5.368			-2.684
190101.000			-5.368			-2.684
190201.000			-5.368			-2.684
190301.000			-5.368			-2.684
190402.000			-5.367			-2.684
190500.000			-5.368			-2.684
190600.000			-5.368			-2.684
190701.000			-5.368			-2.684
190800.000			-5.368			-2.684
190900.000			-5.367			-2.683
191001.000			-5.366			-2.683
191100.000			-5.367			-2.683
191202.000			-5.367			-2.684
191301.000			-5.366			-2.683
191400.000			-5.366			-2.683
191501.000			-5.367			-2.683
191600.000			-5.367			-2.684
191700.000			-5.367			-2.684
191801.000			-5.368			-2.684
191900.000			-5.367			-2.684
192000.000			-5.367			-2.683
192102.000			-5.367			-2.684
192201.000			-5.367			-2.684
192301.000			-5.367			-2.683
192401.000			-5.367			-2.684
192500.000			-5.367			-2.683
192600.000			-5.367			-2.683
192701.000			-5.368			-2.684
192800.000			-5.367			-2.684
192900.000			-5.366			-2.683
193001.000			-5.367			-2.683
193101.000			-5.366			-2.683
193201.000			-5.366			-2.683
193302.000			-5.366			-2.683
193400.000			-5.366			-2.683
193500.000			-5.366			-2.683
193601.000			-5.367			-2.683
193700.000			-5.367			-2.683
193800.000			-5.367			-2.683
193901.000			-5.367			-2.683
194001.000			-5.366			-2.683
194101.000			-5.365			-2.683
194202.000			-5.365			-2.683
194300.000			-5.366			-2.683
194401.000			-5.366			-2.683
194500.000			-5.366			-2.683
194600.000			-5.366			-2.683
194701.000			-5.366			-2.683
194800.000			-5.366			-2.683
194900.000			-5.365			-2.683
195002.000			-5.366			-2.683
195101.000			-5.367			-2.683
195201.000			-5.366			-2.683
195301.000			-5.366			-2.683
195400.000			-5.366			-2.683
195500.000			-5.366			-2.683
195601.000			-5.365			-2.683
195700.000			-5.366			-2.683
195800.000			-5.367			-2.683
195901.000			-5.366			-2.683
196001.000			-5.365			-2.683
196101.000			-5.365			-2.683
196201.000			-5.364			-2.682
196300.000			-5.364			-2.682
196400.000			-5.365			-2.682
196501.000			-5.365			-2.682
196600.000			-5.364			-2.682
196700.000			-5.365			-2.682
196801.000			-5.365			-2.682
196901.000			-5.364			-2.682
197001.000			-5.364			-2.682
197102.000			-5.364			-2.682
197200.000			-5.363			-2.682
197300.000			-5.364			-2.682
197401.000			-5.364			-2.682
197500.000			-5.364			-2.682
197601.000			-5.365			-2.682
197700.000			-5.363			-2.682
197800.000			-5.364			-2.682
197902.000			-5.365			-2.682
198001.000			-5.365			-2.683
198100.000			-5.365			-2.682
198201.000			-5.363			-2.682
198300.000			-5.364			-2.682
198400.000			-5.365			-2.682
198501.000			-5.365			-2.682
198600.000			-5.365			-2.683
198700.000			-5.364			-2.682
198801.000			-5.365			-2.682
198901.000			-5.365			-2.682
199001.000			-5.365			-2.683
199101.000			-5.364			-2.682
199200.000			-5.363			-2.682
199300.000			-5.364			-2.682
199401.000			-5.364			-2.682
199500.000			-5.363			-2.682
199600.000			-5.363			-2.681
199701.000			-5.363			-2.682
199801.000			-5.363			-2.681
199901.000			-5.363			-2.682
200002.000			-5.364			-2.682
200100.000			-5.363			-2.682
200200.000			-5.363			-2.682
200301.000			-5.363			-2.682
200400.000			-5.363			-2.681
200500.000			-5.363			-2.682
200601.000			-5.363			-2.682
200701.000			-5.363			-2.681
200802.000			-5.364			-2.682
200901.000			-5.363			-2.682
201000.000			-5.363			-2.681
201101.000			-5.363			-2.681
201200.000			-5.363			-2.682
201300.000			-5.363			-2.682
201401.000			-5.364			-2.682
201500.000			-5.363			-2.682
201601.000			-5.364			-2.682
201702.000			-5.364			-2.682
201801.000			-5.363			-2.682
201900.000			-5.362			-2.681
202001.000			-5.362			-2.681
202100.000			-5.363			-2.681
202200.000			-5.363			-2.681
202301.000			-5.362			-2.681
202400.000			-5.363			-2.682
202501.000			-5.363			-2.682
202602.000			-5.363			-2.681
202700.000			-5.363			-2.681
202800.000			-5.364			-2.682
202901.000			-5.364			-2.682
203000.000			-5.363			-2.681
203100.000			-5.362			-2.681
203201.000			-5.362			-2.681
203300.000			-5.362			-2.681
203401.000			-5.362			-2.681
203502.000			-5.363			-2.681
203600.000			-5.362			-2.681
203700.000			-5.361			-2.681
203801.000			-5.362			-2.681
203900.000			-5.363			-2.681
204001.000			-5.362			-2.681
204100.000			-5.363			-2.681
204200.000			-5.362			-2.681
204302.000			-5.362			-2.681
204401.000			-5.362			-2.681
204500.000			-5.362			-2.681
204601.000			-5.363			-2.681
204700.000			-5.363			-2.682
204800.000			-5.362			-2.681
204901.000			-5.362			-2.681
205000.000			-5.362			-2.681
205100.000			-5.362			-2.681
205202.000			-5.362			-2.681
205301.000			-5.361			-2.680
205400.000			-5.362			-2.681
205501.000			-5.362			-2.681
205600.000			-5.362			-2.681
205700.000			-5.361			-2.680
205801.000			-5.361			-2.680
205900.000			-5.362			-2.681
206000.000			-5.362			-2.681
206102.000			-5.361			-2.681
206201.000			-5.361			-2.680
206300.000			-5.360			-2.680
206401.000			-5.361			-2.681
206500.000			-5.362			-2.681
206600.000			-5.362			-2.681
206701.000			-5.361			-2.680
206800.000			-5.361			-2.681
206900.000			-5.361			-2.681
207002.000			-5.361			-2.681
207101.000			-5.361			-2.681
207201.000			-5.361			-2.680
207300.000			-5.360			-2.680
207400.000			-5.360			-2.680
207501.000			-5.361			-2.680
207600.000			-5.361			-2.681
207700.000			-5.361			-2.680
207801.000			-5.360			-2.680
207901.000			-5.360			-2.680
208001.000			-5.360			-2.680
208101.000			-5.360			-2.680
208200.000			-5.360			-2.680
208300.000			-5.360			-2.680
208401.000			-5.361			-2.680
208500.000			-5.359			-2.680
208600.000			-5.360			-2.680
208701.000			-5.361			-2.680
208801.000			-5.361			-2.680
208901.000			-5.360			-2.680
209002.000			-5.360			-2.680
209100.000			-5.360			-2.680
209200.000			-5.359			-2.680
209301.000			-5.359			-2.679
209400.000			-5.359			-2.679
209500.000			-5.360			-2.680
209601.000			-5.360			-2.680
209700.000			-5.360			-2.680
209801.000			-5.359			-2.680
209902.000			-5.359			-2.679
210000.000			-5.358			-2.679
210100.000			-5.359			-2.679
210201.000			-5.360			-2.680
210300.000			-5.360			-2.680
210401.000			-5.357			-2.679
210500.000			-5.358			-2.679
210600.000			-5.359			-2.680
210702.000			-5.359			-2.679
210801.000			-5.359			-2.679
210900.000			-5.359			-2.679
211001.000			-5.359			-2.680
211100.000			-5.359			-2.680
211200.000			-5.359			-2.679
211301.000			-5.358			-2.679
211400.000			-5.359			-2.679
211500.000			-5.359			-2.679
211602.000			-5.359			-2.679
211701.000			-5.358			-2.679
211801.000			-5.358			-2.679
211901.000			-5.358			-2.679
212000.000			-5.358			-2.679
212100.000			-5.358			-2.679
212201.000			-5.358			-2.679
212300.000			-5.358			-2.679
212400.000			-5.359			-2.679
212502.000			-5.359			-2.680
212601.000			-5.359			-2.680
212701.000			-5.359			-2.680
212801.000			-5.360			-2.680
212900.000			-5.360			-2.680
213000.000			-5.359			-2.679
213101.000			-5.358			-2.679
213200.000			-5.359			-2.679
213300.000			-5.360			-2.680
213402.000			-5.358			-2.679
213501.000			-5.359			-2.680
213602.000			-5.359			-2.679
213700.000			-5.359			-2.679
213800.000			-5.359			-2.680
213901.000			-5.359			-2.679
214000.000			-5.359			-2.679
214100.000			-5.359			-2.679
214201.000			-5.359			-2.679
214300.000			-5.360			-2.680
214401.000			-5.360			-2.680
214502.000			-5.360			-2.680
214600.000			-5.359			-2.680
214700.000			-5.359			-2.680
214801.000			-5.359			-2.680
214900.000			-5.359			-2.679
215000.000			-5.358			-2.679
215101.000			-5.358			-2.679
215200.000			-5.358			-2.679
215301.000			-5.359			-2.680
215402.000			-5.358			-2.679
215500.000			-5.358			-2.679
215600.000			-5.359			-2.680
215701.000			-5.360			-2.680
215800.000			-5.359			-2.680
215900.000			-5.358			-2.679
216001.000			-5.359			-2.679
216100.000			-5.358			-2.679
216201.000			-5.358			-2.679
216302.000			-5.358			-2.679
216401.000			-5.358			-2.679
216500.000			-5.358			-2.679
216601.000			-5.358			-2.679
216700.000			-5.358			-2.679
216801.000			-5.359			-2.679
216900.000			-5.359			-2.679
217000.000			-5.358			-2.679
217102.000			-5.358			-2.679
217201.000			-5.358			-2.679
217301.000			-5.358			-2.679
217401.000			-5.358			-2.679
217500.000			-5.358			-2.679
217600.000			-5.357			-2.678
217701.000			-5.357			-2.679
217800.000			-5.357			-2.679
217900.000			-5.357			-2.678
218001.000			-5.358			-2.679
218101.000			-5.357			-2.679
218201.000			-5.357			-2.679
218302.000			-5.357			-2.679
218400.000			-5.357			-2.679
218500.000			-5.357			-2.678
218601.000			-5.356			-2.678
218700.000			-5.358			-2.679
218800.000			-5.357			-2.679
218901.000			-5.357			-2.678
219001.000			-5.356			-2.678
219101.000			-5.357			-2.678
219202.000			-5.358			-2.679
219300.000			-5.357			-2.679
219400.000			-5.357			-2.678
219501.000			-5.357			-2.679
219600.000			-5.356			-2.678
219700.000			-5.357			-2.678
219801.000			-5.357			-2.679
219900.000			-5.357			-2.679
220002.000			-5.357			-2.678
220101.000			-5.355			-2.678
220200.000			-5.357			-2.678
220301.000			-5.357			-2.678
220400.000			-5.357			-2.679
220500.000			-5.356			-2.678
220601.000			-5.356			-2.678
220700.000			-5.356			-2.678
220800.000			-5.356			-2.678
220902.000			-5.355			-2.678
221001.000			-5.356			-2.678
221100.000			-5.357			-2.678
221201.000			-5.358			-2.679
221300.000			-5.357			-2.679
221400.000			-5.357			-2.678
221501.000			-5.357			-2.678
221600.000			-5.356			-2.678
221700.000			-5.356			-2.678
221802.000			-5.356			-2.678
221901.000			-5.356			-2.678
222000.000			-5.356			-2.678
222101.000			-5.357			-2.678
222200.000			-5.357			-2.678
222300.000			-5.356			-2.678
222401.000			-5.357			-2.678
222500.000			-5.357			-2.679
222600.000			-5.357			-2.679
222702.000			-5.356			-2.678
222801.000			-5.355			-2.678
222900.000			-5.356			-2.678
223001.000			-5.357			-2.679
223100.000			-5.357			-2.678
223201.000			-5.357			-2.678
223300.000			-5.357			-2.678
223400.000			-5.356			-2.678
223501.000			-5.357			-2.678
223601.000			-5.357			-2.678
223701.000			-5.357			-2.678
223802.000			-5.356			-2.678
223900.000			-5.357			-2.678
224000.000			-5.357			-2.679
224101.000			-5.357			-2.679
224200.000			-5.356			-2.678
224300.000			-5.355			-2.678
224401.000			-5.356			-2.678
224501.000			-5.356			-2.678
224601.000			-5.356			-2.678
224702.000			-5.357			-2.678
224800.000			-5.356			-2.678
224900.000			-5.355			-2.678
225001.000			-5.355			-2.678
225100.000			-5.356			-2.678
225200.000			-5.356			-2.678
225301.000			-5.356			-2.678
225401.000			-5.356			-2.678
225501.000			-5.356			-2.678
225602.000			-5.355			-2.678
225700.000			-5.354			-2.677
225800.000			-5.355			-2.677
225901.000			-5.355			-2.677
226000.000			-5.355			-2.677
226100.000			-5.355			-2.678
226201.000			-5.354			-2.677
226300.000			-5.355			-2.677
226402.000			-5.356			-2.678
226501.000			-5.356			-2.678
226600.000			-5.356			-2.678
226701.000			-5.356			-2.678
226800.000			-5.354			-2.677
226900.000			-5.354			-2.677
227001.000			-5.355			-2.677
227100.000			-5.355			-2.677
227200.000			-5.355			-2.677
227302.000			-5.355			-2.677
227401.000			-5.354			-2.677
227501.000			-5.355			-2.677
227601.000			-5.354			-2.677
227700.000			-5.355			-2.678
227800.000			-5.355			-2.678
227901.000			-5.355			-2.678
228000.000			-5.355			-2.677
228100.000			-5.354			-2.677
228202.000			-5.354			-2.677
228301.000			-5.354			-2.677
228401.000			-5.355			-2.677
228501.000			-5.355			-2.677
228600.000			-5.354			-2.677
228700.000			-5.354			-2.677
228801.000			-5.355			-2.678
228900.000			-5.355			-2.677
229000.000			-5.354			-2.677
229101.000			-5.354			-2.677
229201.000			-5.354			-2.677
229301.000			-5.354			-2.677
229401.000			-5.354			-2.677
229500.000			-5.354			-2.677
229601.000			-5.353			-2.676
229700.000			-5.354			-2.677
229800.000			-5.354			-2.677
229901.000			-5.353			-2.677
230000.000			-5.353			-2.677
230101.000			-5.353			-2.676
230202.000			-5.354			-2.677
230300.000			-5.355			-2.677
230400.000			-5.353			-2.676
230501.000			-5.354			-2.677
230600.000			-5.353			-2.677
230700.000			-5.352			-2.676
230801.000			-5.353			-2.677
230900.000			-5.353			-2.676
231001.000			-5.354			-2.677
231102.000			-5.354			-2.677
231200.000			-5.353			-2.677
231300.000			-5.353			-2.676
231401.000			-5.353			-2.676
231500.000			-5.352			-2.676
231600.000			-5.353			-2.676
231701.000			-5.354			-2.677
231800.000			-5.354			-2.677
231901.000			-5.353			-2.677
232002.000			-5.353			-2.677
232100.000			-5.353			-2.676
232200.000			-5.352			-2.676
232301.000			-5.353			-2.676
232400.000			-5.354			-2.677
232500.000			-5.353			-2.677
232601.000			-5.353			-2.677
232700.000			-5.353			-2.676
232802.000			-5.352			-2.676
232901.000			-5.353			-2.676
233000.000			-5.352			-2.676
233101.000			-5.352			-2.676
233200.000			-5.353			-2.677
233300.000			-5.353			-2.677
233401.000			-5.353			-2.677
233500.000			-5.353			-2.677
233601.000			-5.353			-2.676
233702.000			-5.352			-2.676
233801.000			-5.351			-2.676
233900.000			-5.351			-2.676
234001.000			-5.352			-2.676
234100.000			-5.353			-2.676
234200.000			-5.353			-2.676
234301.000			-5.352			-2.676
234400.000			-5.351			-2.676
234500.000			-5.351			-2.676
234602.000			-5.351			-2.675
234701.000			-5.351			-2.676
234800.000			-5.353			-2.676
234901.000			-5.352			-2.676
235000.000			-5.351			-2.675
235100.000			-5.351			-2.675
235201.000			-5.351			-2.675
235300.000			-5.352			-2.676
235400.000			-5.352			-2.676
235502.000			-5.352			-2.676
235601.000			-5.351			-2.676
235700.000			-5.351			-2.675
235801.000			-5.352			-2.676
235900.000			-5.352			-2.676
236001.000			-5.352			-2.676
236100.000			-5.351			-2.675
236200.000			-5.351			-2.676
236301.000			-5.352			-2.676
236401.000			-5.353			-2.677
236501.000			-5.352			-2.676
236601.000			-5.352			-2.676
236700.000			-5.351			-2.676
236800.000			-5.352			-2.676
236901.000			-5.352			-2.676
237000.000			-5.351			-2.676
237100.000			-5.352			-2.676
237201.000			-5.352			-2.676
237301.000			-5.352			-2.676
237401.000			-5.352			-2.676
237501.000			-5.352			-2.676
237600.000			-5.351			-2.675
237700.000			-5.351			-2.675
237801.000			-5.352			-2.676
237900.000			-5.352			-2.676
238000.000			-5.352			-2.676
238101.000			-5.350			-2.675
238201.000			-5.351			-2.675
238301.000			-5.351			-2.675
238401.000			-5.351			-2.675
238500.000			-5.351			-2.675
238600.000			-5.351			-2.675
238701.000			-5.350			-2.675
238800.000			-5.350			-2.675
238900.000			-5.350			-2.675
239001.000			-5.350			-2.675
239101.000			-5.351			-2.675
239202.000			-5.350			-2.675
239300.000			-5.351			-2.675
239400.000			-5.351			-2.675
239501.000			-5.351			-2.676
239600.000			-5.351			-2.675
239700.000			-5.351			-2.676
239801.000			-5.350			-2.675
239900.000			-5.350			-2.675
240001.000			-5.351			-2.675
240102.000			-5.350			-2.675
240201.000			-5.350			-2.675
240300.000			-5.350			-2.675
240401.000			-5.351			-2.675
240500.000			-5.351			-2.676
240600.000			-5.351			-2.676
240701.000			-5.351			-2.675
240800.000			-5.350			-2.675
240901.000			-5.350			-2.675
241002.000			-5.350			-2.675
241101.000			-5.351			-2.676
241200.000			-5.351			-2.676
241301.000			-5.351			-2.676
241400.000			-5.350			-2.675
241500.000			-5.350			-2.675
241601.000			-5.350			-2.675
241700.000			-5.350			-2.675
241801.000			-5.350			-2.675
241902.000			-5.350			-2.675
242000.000			-5.350			-2.675
242100.000			-5.350			-2.675
242201.000			-5.350			-2.675
242300.000			-5.350			-2.675
242401.000			-5.349			-2.675
242500.000			-5.350			-2.675
242600.000			-5.350			-2.675
242702.000			-5.349			-2.675
242801.000			-5.349			-2.674
242901.000			-5.350			-2.675
243001.000			-5.350			-2.675
243100.000			-5.350			-2.675
243200.000			-5.350			-2.675
243301.000			-5.351			-2.675
243400.000			-5.350			-2.675
243500.000			-5.350			-2.675
243602.000			-5.350			-2.675
243701.000			-5.349			-2.675
243801.000			-5.349			-2.674
243901.000			-5.349			-2.674
244000.000			-5.349			-2.675
244100.000			-5.350			-2.675
244201.000			-5.350			-2.675
244300.000			-5.351			-2.675
244400.000			-5.350			-2.675
244502.000			-5.350			-2.675
244601.000			-5.350			-2.675
244701.000			-5.349			-2.674
244801.000			-5.349			-2.675
244900.000			-5.350			-2.675
245000.000			-5.349			-2.674
245101.000			-5.348			-2.674
245200.000			-5.348			-2.674
245300.000			-5.347			-2.674
245401.000			-5.348			-2.674
245501.000			-5.348			-2.674
245602.000			-5.348			-2.674
245700.000			-5.348			-2.674
245800.000			-5.350			-2.675
245901.000			-5.349			-2.675
246000.000			-5.349			-2.674
246100.000			-5.349			-2.674
246201.000			-5.349			-2.674
246300.000			-5.348			-2.674
246401.000			-5.346			-2.673
246502.000			-5.348			-2.674
246601.000			-5.349			-2.674
246700.000			-5.347			-2.674
246801.000			-5.347			-2.674
246900.000			-5.348			-2.674
247000.000			-5.349			-2.674
247101.000			-5.348			-2.674
247200.000			-5.348			-2.674
247300.000			-5.348			-2.674
247402.000			-5.348			-2.674
247501.000			-5.348			-2.674
247600.000			-5.348			-2.674
247701.000			-5.348			-2.674
247800.000			-5.348			-2.674
247900.000			-5.347			-2.674
248001.000			-5.348			-2.674
248100.000			-5.348			-2.674
248200.000			-5.348			-2.674
248302.000			-5.347			-2.674
248401.000			-5.348			-2.674
248501.000			-5.348			-2.674
248601.000			-5.347			-2.673
248700.000			-5.346			-2.673
248801.000			-5.346			-2.673
248900.000			-5.347			-2.674
249000.000			-5.346			-2.673
249101.000			-5.346			-2.673
249201.000			-5.347			-2.673
249301.000			-5.348			-2.674
249402.000			-5.347			-2.674
249500.000			-5.348			-2.674
249600.000			-5.348			-2.674
249701.000			-5.347			-2.674
249800.000			-5.347			-2.674
249900.000			-5.347			-2.674
250001.000			-5.347			-2.673
250100.000			-5.347			-2.673
250201.000			-5.347			-2.674
250302.000			-5.346			-2.673
250400.000			-5.346			-2.673
250500.000			-5.346			-2.673
250601.000			-5.346			-2.673
250700.000			-5.347			-2.673
250800.000			-5.347			-2.674
250901.000			-5.346			-2.673
251000.000			-5.346			-2.673
251101.000			-5.346			-2.673
251202.000			-5.346			-2.673
251301.000			-5.347			-2.673
251400.000			-5.347			-2.673
251501.000			-5.346			-2.673
251600.000			-5.346			-2.673
251700.000			-5.346			-2.673
251801.000			-5.346			-2.673
251900.000			-5.346			-2.673
252001.000			-5.346			-2.673
252101.000			-5.345			-2.673
252201.000			-5.345			-2.673
252301.000			-5.344			-2.672
252400.000			-5.346			-2.673
252500.000			-5.346			-2.673
252601.000			-5.346			-2.673
252700.000			-5.345			-2.673
252800.000			-5.345			-2.673
252901.000			-5.345			-2.673
253001.000			-5.345			-2.673
253101.000			-5.346			-2.673
253201.000			-5.346			-2.673
253300.000			-5.345			-2.672
253400.000			-5.345			-2.673
253501.000			-5.346			-2.673
253600.000			-5.346			-2.673
253700.000			-5.344			-2.672
253801.000			-5.344			-2.672
253901.000			-5.344			-2.672
254001.000			-5.345			-2.673
254101.000			-5.345			-2.673
254200.000			-5.345			-2.672
254300.000			-5.345			-2.672
254401.000			-5.345			-2.673
254500.000			-5.346			-2.673
254600.000			-5.345			-2.672
254701.000			-5.345			-2.672
254801.000			-5.344			-2.672
254901.000			-5.344			-2.672
255002.000			-5.344			-2.672
255100.000			-5.344			-2.672
255201.000			-5.344			-2.672
255300.000			-5.344			-2.672
255400.000			-5.344			-2.672
255501.000			-5.343			-2.671
255600.000			-5.342			-2.671
255700.000			-5.344			-2.672
255802.000			-5.345			-2.672
255901.000			-5.343			-2.671
256000.000			-5.344			-2.672
256101.000			-5.344			-2.672
256200.000			-5.343			-2.672
256300.000			-5.343			-2.672
256401.000			-5.344			-2.672
256500.000			-5.343			-2.671
256600.000			-5.344			-2.672
256702.000			-5.343			-2.672
256801.000			-5.343			-2.671
256900.000			-5.342			-2.671
257001.000			-5.342			-2.671
257100.000			-5.343			-2.672
257200.000			-5.343			-2.672
257301.000			-5.344			-2.672
257400.000			-5.343			-2.672
257500.000			-5.343			-2.672
257602.000			-5.342			-2.671
257701.000			-5.341			-2.671
257800.000			-5.342			-2.671
257901.000			-5.342			-2.671
258000.000			-5.342			-2.671
258100.000			-5.343			-2.671
258201.000			-5.342			-2.671
258300.000			-5.342			-2.671
258401.000			-5.342			-2.671
258501.000			-5.342			-2.671
258601.000			-5.343			-2.671
258702.000			-5.342			-2.671
258800.000			-5.342			-2.671
258900.000			-5.342			-2.671
259001.000			-5.341			-2.671
259100.000			-5.341			-2.670
259200.000			-5.342			-2.671
259301.000			-5.342			-2.671
259400.000			-5.341			-2.671
259501.000			-5.341			-2.670
259602.000			-5.341			-2.671
259700.000			-5.342			-2.671
259800.000			-5.342			-2.671
259901.000			-5.342			-2.671
260000.000			-5.342			-2.671
260100.000			-5.342			-2.671
260201.000			-5.342			-2.671
260300.000			-5.342			-2.671
260401.000			-5.342			-2.671
260502.000			-5.342			-2.671
260600.000			-5.341			-2.671
260700.000			-5.341			-2.670
260801.000			-5.340			-2.670
260900.000			-5.341			-2.671
261000.000			-5.341			-2.670
261101.000			-5.340			-2.670
261200.000			-5.341			-2.671
261301.000			-5.340			-2.670
261402.000			-5.340			-2.670
261500.000			-5.341			-2.670
261601.000			-5.342			-2.671
261700.000			-5.342			-2.671
261800.000			-5.341			-2.671
261901.000			-5.341			-2.670
262000.000			-5.341			-2.670
262100.000			-5.341			-2.670
262202.000			-5.340			-2.670
262301.000			-5.340			-2.670
262400.000			-5.341			-2.671
262501.000			-5.342			-2.671
262600.000			-5.340			-2.670
262700.000			-5.339			-2.670
262801.000			-5.340			-2.670
262900.000			-5.340			-2.670
263000.000			-5.341			-2.670
263102.000			-5.340			-2.670
263201.000			-5.339			-2.670
263300.000			-5.340			-2.670
263401.000			-5.339			-2.670
263500.000			-5.339			-2.670
263600.000			-5.339			-2.670
263701.000			-5.340			-2.670
263800.000			-5.339			-2.670
263900.000			-5.339			-2.670
264002.000			-5.340			-2.670
264101.000			-5.339			-2.670
264200.000			-5.339			-2.670
264301.000			-5.339			-2.670
264400.000			-5.340			-2.670
264500.000			-5.340			-2.670
264601.000			-5.340			-2.670
264700.000			-5.340			-2.670
264801.000			-5.339			-2.670
264901.000			-5.339			-2.670
265001.000			-5.339			-2.669
265102.000			-5.338			-2.669
265200.000			-5.339			-2.670
265300.000			-5.339			-2.670
265401.000			-5.340			-2.670
265500.000			-5.340			-2.670
265600.000			-5.339			-2.669
265701.000			-5.339			-2.669
265800.000			-5.340			-2.670
265901.000			-5.340			-2.670
266002.000			-5.339			-2.669
266100.000			-5.337			-2.669
266200.000			-5.337			-2.669
266301.000			-5.337			-2.668
266400.000			-5.338			-2.669
266500.000			-5.338			-2.669
266601.000			-5.338			-2.669
266700.000			-5.339			-2.669
266801.000			-5.338			-2.669
266902.000			-5.338			-2.669
267001.000			-5.338			-2.669
267100.000			-5.338			-2.669
267201.000			-5.338			-2.669
267300.000			-5.338			-2.669
267400.000			-5.338			-2.669
267501.000			-5.338			-2.669
267600.000			-5.338			-2.669
267700.000			-5.338			-2.669
267802.000			-5.338			-2.669
267901.000			-5.338			-2.669
268001.000			-5.337			-2.668
268100.000			-5.337			-2.668
268200.000			-5.338			-2.669
268301.000			-5.339			-2.669
268400.000			-5.339			-2.669
268500.000			-5.338			-2.669
268601.000			-5.337			-2.668
268701.000			-5.336			-2.668
268801.000			-5.337			-2.669
268902.000			-5.337			-2.668
269000.000			-5.337			-2.668
269100.000			-5.337			-2.669
269201.000			-5.338			-2.669
269300.000			-5.337			-2.669
269400.000			-5.337			-2.668
269501.000			-5.338			-2.669
269600.000			-5.338			-2.669
269701.000			-5.338			-2.669
269802.000			-5.337			-2.669
269900.000			-5.337			-2.669
270000.000			-5.337			-2.668
270101.000			-5.337			-2.668
270200.000			-5.338			-2.669
270300.000			-5.338			-2.669
270401.000			-5.337			-2.669
270500.000			-5.337			-2.669
270601.000			-5.338			-2.669
270702.000			-5.338			-2.669
270801.000			-5.338			-2.669
270900.000			-5.337			-2.668
271001.000			-5.336			-2.668
271100.000			-5.337			-2.669
271201.000			-5.337			-2.668
271300.000			-5.337			-2.668
271400.000			-5.336			-2.668
271502.000			-5.336			-2.668
271601.000			-5.336			-2.668
271701.000			-5.336			-2.668
271801.000			-5.337			-2.668
271900.000			-5.337			-2.668
272000.000			-5.336			-2.668
272101.000			-5.335			-2.668
272200.000			-5.336			-2.668
272300.000			-5.336			-2.668
272402.000			-5.336			-2.668
272501.000			-5.336			-2.668
272601.000			-5.336			-2.668
272701.000			-5.337			-2.668
272800.000			-5.337			-2.668
272900.000			-5.336			-2.668
273001.000			-5.336			-2.668
273100.000			-5.335			-2.668
273200.000			-5.335			-2.668
273301.000			-5.335			-2.668
273401.000			-5.336			-2.668
273501.000			-5.336			-2.668
273601.000			-5.336			-2.668
273700.000			-5.336			-2.668
273800.000			-5.336			-2.668
273901.000			-5.336			-2.668
274000.000			-5.336			-2.668
274100.000			-5.335			-2.668
274201.000			-5.334			-2.667
274301.000			-5.335			-2.668
274402.000			-5.335			-2.668
274501.000			-5.336			-2.668
274600.000			-5.336			-2.668
274701.000			-5.337			-2.668
274800.000			-5.335			-2.668
274900.000			-5.335			-2.667
275001.000			-5.335			-2.668
275100.000			-5.335			-2.668
275201.000			-5.335			-2.668
275302.000			-5.335			-2.668
275401.000			-5.335			-2.667
275500.000			-5.335			-2.667
275601.000			-5.336			-2.668
275700.000			-5.336			-2.668
275800.000			-5.335			-2.667
275901.000			-5.334			-2.667
276000.000			-5.334			-2.667
276101.000			-5.334			-2.667
276202.000			-5.334			-2.667
276301.000			-5.335			-2.667
276400.000			-5.335			-2.668
276501.000			-5.335			-2.668
276600.000			-5.335			-2.668
276700.000			-5.335			-2.668
276801.000			-5.335			-2.667
276900.000			-5.335			-2.668
277000.000			-5.335			-2.668
277102.000			-5.335			-2.668
277201.000			-5.335			-2.667
277300.000			-5.334			-2.667
277401.000			-5.334			-2.667
277500.000			-5.335			-2.667
277601.000			-5.335			-2.667
277700.000			-5.335			-2.667
277800.000			-5.335			-2.667
277901.000			-5.334			-2.667
278001.000			-5.334			-2.667
278101.000			-5.335			-2.667
278201.000			-5.334			-2.667
278300.000			-5.333			-2.667
278400.000			-5.334			-2.667
278501.000			-5.334			-2.667
278600.000			-5.333			-2.667
278700.000			-5.334			-2.667
278801.000			-5.334			-2.667
278901.000			-5.334			-2.667
279001.000			-5.333			-2.667
279101.000			-5.333			-2.667
279200.000			-5.334			-2.667
279300.000			-5.334			-2.667
279401.000			-5.335			-2.667
279500.000			-5.334			-2.667
279600.000			-5.334			-2.667
279701.000			-5.334			-2.667
279801.000			-5.334			-2.667
279901.000			-5.334			-2.667
280002.000			-5.334			-2.667
280100.000			-5.334			-2.667
280200.000			-5.333			-2.667
280301.000			-5.333			-2.667
280400.000			-5.333			-2.667
280500.000			-5.335			-2.667
280601.000			-5.335			-2.668
280701.000			-5.334			-2.667
280802.000			-5.333			-2.667
280901.000			-5.334			-2.667
281000.000			-5.333			-2.667
281101.000			-5.334			-2.667
281200.000			-5.334			-2.667
281300.000			-5.333			-2.667
281401.000			-5.334			-2.667
281500.000			-5.334			-2.667
281601.000			-5.334			-2.667
281702.000			-5.334			-2.667
281801.000			-5.333			-2.666
281900.000			-5.332			-2.666
282001.000			-5.332			-2.666
282100.000			-5.332			-2.666
282200.000			-5.333			-2.667
282301.000			-5.334			-2.667
282400.000			-5.333			-2.666
282500.000			-5.333			-2.667
282602.000			-5.333			-2.667
282701.000			-5.333			-2.667
282800.000			-5.333			-2.667
282901.000			-5.334			-2.667
283000.000			-5.333			-2.667
283100.000			-5.332			-2.666
283201.000			-5.332			-2.666
283300.000			-5.332			-2.666
283400.000			-5.333			-2.666
283502.000			-5.333			-2.667
283601.000			-5.333			-2.666
283700.000			-5.332			-2.666
283801.000			-5.333			-2.666
283900.000			-5.332			-2.666
284001.000			-5.332			-2.666
284100.000			-5.333			-2.666
284200.000			-5.332			-2.666
284301.000			-5.332			-2.666
284401.000			-5.332			-2.666
284501.000			-5.331			-2.665
284601.000			-5.332			-2.666
284700.000			-5.332			-2.666
284800.000			-5.332			-2.666
284901.000			-5.331			-2.665
285000.000			-5.330			-2.665
285100.000			-5.331			-2.666
285201.000			-5.332			-2.666
285301.000			-5.332			-2.666
285401.000			-5.332			-2.666
285501.000			-5.332			-2.666
285600.000			-5.332			-2.666
285700.000			-5.331			-2.665
285801.000			-5.331			-2.665
285900.000			-5.331			-2.666
286000.000			-5.331			-2.665
286101.000			-5.332			-2.666
286201.000			-5.332			-2.666
286301.000			-5.331			-2.666
286401.000			-5.331			-2.666
286500.000			-5.332			-2.666
286600.000			-5.331			-2.666
286701.000			-5.331			-2.665
286800.000			-5.332			-2.666
286900.000			-5.331			-2.666
287001.000			-5.331			-2.666
287101.000			-5.331			-2.666
287202.000			-5.331			-2.666
287300.000			-5.332			-2.666
287400.000			-5.331			-2.666
287501.000			-5.330			-2.665
287600.000			-5.331			-2.665
287700.000			-5.331			-2.666
287801.000			-5.331			-2.666
287900.000			-5.331			-2.665
288001.000			-5.330			-2.665
288102.000			-5.330			-2.665
288200.000			-5.330			-2.665
288300.000			-5.330			-2.665
288401.000			-5.330			-2.665
288500.000			-5.330			-2.665
288600.000			-5.331			-2.665
288701.000			-5.330			-2.665
288800.000			-5.330			-2.665
288901.000			-5.330			-2.665
289002.000			-5.331			-2.666
289100.000			-5.333			-2.666
289200.000			-5.332			-2.666
289301.000			-5.331			-2.666
289400.000			-5.332			-2.666
289500.000			-5.331			-2.665
289601.000			-5.330			-2.665
289700.000			-5.331			-2.665
289801.000			-5.330			-2.665
289902.000			-5.330			-2.665
290001.000			-5.329			-2.665
290100.000			-5.330			-2.665
290201.000			-5.331			-2.666
290300.000			-5.330			-2.665
290401.000			-5.331			-2.666
290500.000			-5.331			-2.665
290600.000			-5.330			-2.665
290701.000			-5.331			-2.665
290801.000			-5.331			-2.666
290901.000			-5.331			-2.665
291001.000			-5.331			-2.665
291100.000			-5.331			-2.665
291200.000			-5.330			-2.665
291301.000			-5.329			-2.665
291400.000			-5.330			-2.665
291500.000			-5.331			-2.665
291601.000			-5.330			-2.665
291701.000			-5.330			-2.665
291801.000			-5.331			-2.665
291901.000			-5.330			-2.665
292000.000			-5.330			-2.665
292100.000			-5.330			-2.665
292201.000			-5.330			-2.665
292300.000			-5.329			-2.665
292400.000			-5.329			-2.665
292501.000			-5.330			-2.665
292601.000			-5.330			-2.665
292701.000			-5.330			-2.665
292801.000			-5.329			-2.665
292900.000			-5.329			-2.665
293000.000			-5.330			-2.665
293101.000			-5.330			-2.665
293200.000			-5.330			-2.665
293300.000			-5.330			-2.665
293401.000			-5.330			-2.665
293501.000			-5.329			-2.665
293602.000			-5.329			-2.665
293700.000			-5.329			-2.665
293800.000			-5.330			-2.665
293901.000			-5.330			-2.665
294000.000			-5.330			-2.665
294100.000			-5.330			-2.665
294201.000			-5.330			-2.665
294300.000			-5.329			-2.665
294401.000			-5.330			-2.665
294502.000			-5.329			-2.664
294601.000			-5.329			-2.664
294700.000			-5.328			-2.664
294801.000			-5.328			-2.664
294900.000			-5.328			-2.664
295000.000			-5.329			-2.664
295101.000			-5.328			-2.664
295200.000			-5.329			-2.665
295300.000			-5.329			-2.665
295402.000			-5.329			-2.664
295501.000			-5.329			-2.665
295601.000			-5.328			-2.664
295701.000			-5.328			-2.664
295800.000			-5.328			-2.664
295900.000			-5.328			-2.664
296001.000			-5.328			-2.664
296100.000			-5.328			-2.664
296200.000			-5.328			-2.664
296301.000			-5.328			-2.664
296401.000			-5.328			-2.664
296501.000			-5.327			-2.664
296601.000			-5.329			-2.664
296700.000			-5.328			-2.664
296801.000			-5.327			-2.664
296900.000			-5.328			-2.664
297000.000			-5.328			-2.664
297101.000			-5.328			-2.664
297200.000			-5.328			-2.664
297301.000			-5.328			-2.664
297402.000			-5.328			-2.664
297501.000			-5.328			-2.664
297600.000			-5.329			-2.664
297701.000			-5.329			-2.664
297800.000			-5.328			-2.664
297900.000			-5.328			-2.664
298001.000			-5.328			-2.664
298100.000			-5.328			-2.664
298200.000			-5.328			-2.664
298302.000			-5.327			-2.663
298401.000			-5.329			-2.664
298500.000			-5.328			-2.664
298601.000			-5.327			-2.664
298700.000			-5.327			-2.664
298800.000			-5.327			-2.664
298901.000			-5.328			-2.664
299000.000			-5.328			-2.664
299100.000			-5.328			-2.664
299202.000			-5.328			-2.664
299301.000			-5.327			-2.664
299401.000			-5.327			-2.664
299501.000			-5.326			-2.663
299600.000			-5.326			-2.663
299700.000			-5.326			-2.663
299801.000			-5.326			-2.663
299900.000			-5.327			-2.664
