# Acquired on 24/01/2024 14:11:45 
# SPIDER: Creep_4mm_GRPCNT1454A-1
# CREEP MEASUREMENT

# time [ms]		force [N]		stiffness [N/mm]
0.000			-9.019			-2.255
105.000			-9.442			-2.361
204.000			-9.511			-2.378
303.000			-9.417			-2.354
405.000			-9.275			-2.319
504.000			-9.227			-2.307
604.000			-9.185			-2.296
705.000			-9.148			-2.287
803.000			-9.116			-2.279
904.000			-9.089			-2.272
1005.000			-9.062			-2.266
1104.000			-9.039			-2.260
1204.000			-8.996			-2.249
1304.000			-8.977			-2.244
1404.000			-8.961			-2.240
1503.000			-8.944			-2.236
1604.000			-8.929			-2.232
1704.000			-8.914			-2.229
1805.000			-8.902			-2.225
1904.000			-8.875			-2.219
2003.000			-8.864			-2.216
2105.000			-8.851			-2.213
2204.000			-8.841			-2.210
2304.000			-8.831			-2.208
2405.000			-8.821			-2.205
2504.000			-8.812			-2.203
2604.000			-8.792			-2.198
2704.000			-8.784			-2.196
2804.000			-8.776			-2.194
2904.000			-8.768			-2.192
3005.000			-8.760			-2.190
3104.000			-8.752			-2.188
3204.000			-8.745			-2.186
3305.000			-8.731			-2.183
3404.000			-8.723			-2.181
3504.000			-8.717			-2.179
3605.000			-8.712			-2.178
3704.000			-8.705			-2.176
3804.000			-8.699			-2.175
3904.000			-8.693			-2.173
4004.000			-8.687			-2.172
4104.000			-8.676			-2.169
4205.000			-8.670			-2.167
4304.000			-8.665			-2.166
4404.000			-8.660			-2.165
4505.000			-8.655			-2.164
4603.000			-8.651			-2.163
4705.000			-8.647			-2.162
4804.000			-8.636			-2.159
4904.000			-8.631			-2.158
5005.000			-8.627			-2.157
5104.000			-8.622			-2.156
5204.000			-8.618			-2.155
5305.000			-8.614			-2.153
5404.000			-8.610			-2.152
5504.000			-8.601			-2.150
5605.000			-8.596			-2.149
5704.000			-8.593			-2.148
5803.000			-8.589			-2.147
5905.000			-8.587			-2.147
6004.000			-8.583			-2.146
6104.000			-8.579			-2.145
6205.000			-8.572			-2.143
6304.000			-8.568			-2.142
6404.000			-8.564			-2.141
6504.000			-8.561			-2.140
6604.000			-8.557			-2.139
6704.000			-8.553			-2.138
6805.000			-8.551			-2.138
6904.000			-8.548			-2.137
7003.000			-8.542			-2.136
7105.000			-8.539			-2.135
7204.000			-8.536			-2.134
7304.000			-8.533			-2.133
7405.000			-8.529			-2.132
7504.000			-8.526			-2.131
7604.000			-8.523			-2.131
7703.000			-8.519			-2.130
7804.000			-8.516			-2.129
7905.000			-8.513			-2.128
8004.000			-8.510			-2.127
8104.000			-8.507			-2.127
8205.000			-8.504			-2.126
8304.000			-8.501			-2.125
8403.000			-8.495			-2.124
8505.000			-8.494			-2.124
8604.000			-8.491			-2.123
8704.000			-8.489			-2.122
8805.000			-8.487			-2.122
8903.000			-8.484			-2.121
9004.000			-8.481			-2.120
9105.000			-8.476			-2.119
9204.000			-8.474			-2.118
9304.000			-8.471			-2.118
9405.000			-8.469			-2.117
9504.000			-8.467			-2.117
9603.000			-8.465			-2.116
9705.000			-8.463			-2.116
9804.000			-8.462			-2.115
9904.000			-8.457			-2.114
10005.000			-8.454			-2.113
10103.000			-8.452			-2.113
10204.000			-8.450			-2.113
10305.000			-8.448			-2.112
10404.000			-8.445			-2.111
10504.000			-8.443			-2.111
10605.000			-8.439			-2.110
10704.000			-8.438			-2.109
10803.000			-8.436			-2.109
10905.000			-8.434			-2.109
11004.000			-8.431			-2.108
11105.000			-8.430			-2.107
11204.000			-8.428			-2.107
11304.000			-8.424			-2.106
11405.000			-8.422			-2.105
11503.000			-8.420			-2.105
11604.000			-8.418			-2.105
11705.000			-8.416			-2.104
11804.000			-8.414			-2.103
11904.000			-8.412			-2.103
12004.000			-8.410			-2.102
12104.000			-8.407			-2.102
12204.000			-8.406			-2.102
12305.000			-8.404			-2.101
12404.000			-8.402			-2.100
12504.000			-8.400			-2.100
12605.000			-8.400			-2.100
12703.000			-8.398			-2.100
12804.000			-8.394			-2.098
12905.000			-8.392			-2.098
13004.000			-8.391			-2.098
13104.000			-8.390			-2.097
13205.000			-8.389			-2.097
13304.000			-8.387			-2.097
13403.000			-8.385			-2.096
13505.000			-8.381			-2.095
13604.000			-8.379			-2.095
13704.000			-8.378			-2.095
13805.000			-8.377			-2.094
13904.000			-8.375			-2.094
14004.000			-8.375			-2.094
14103.000			-8.373			-2.093
14204.000			-8.369			-2.092
14305.000			-8.367			-2.092
14404.000			-8.365			-2.091
14504.000			-8.365			-2.091
14604.000			-8.364			-2.091
14704.000			-8.362			-2.090
14804.000			-8.359			-2.090
14905.000			-8.357			-2.089
15004.000			-8.355			-2.089
15104.000			-8.355			-2.089
15205.000			-8.354			-2.088
15303.000			-8.353			-2.088
15404.000			-8.351			-2.088
15505.000			-8.349			-2.087
15604.000			-8.347			-2.087
15704.000			-8.344			-2.086
15805.000			-8.344			-2.086
15904.000			-8.342			-2.086
16003.000			-8.341			-2.085
16105.000			-8.340			-2.085
16204.000			-8.339			-2.085
16304.000			-8.338			-2.085
16405.000			-8.334			-2.083
16504.000			-8.333			-2.083
16604.000			-8.331			-2.083
16704.000			-8.330			-2.083
16804.000			-8.330			-2.082
16904.000			-8.329			-2.082
17005.000			-8.328			-2.082
17104.000			-8.324			-2.081
17204.000			-8.323			-2.081
17305.000			-8.322			-2.080
17403.000			-8.321			-2.080
17505.000			-8.320			-2.080
17604.000			-8.318			-2.080
17704.000			-8.318			-2.079
17805.000			-8.315			-2.079
17904.000			-8.314			-2.078
18004.000			-8.312			-2.078
18104.000			-8.311			-2.078
18204.000			-8.311			-2.078
18304.000			-8.310			-2.077
18405.000			-8.309			-2.077
18504.000			-8.306			-2.077
18603.000			-8.304			-2.076
18705.000			-8.303			-2.076
18804.000			-8.302			-2.076
18904.000			-8.300			-2.075
19005.000			-8.300			-2.075
19104.000			-8.300			-2.075
19204.000			-8.298			-2.075
19304.000			-8.295			-2.074
19404.000			-8.294			-2.073
19504.000			-8.293			-2.073
19605.000			-8.293			-2.073
19704.000			-8.291			-2.073
19804.000			-8.291			-2.073
19905.000			-8.290			-2.072
20003.000			-8.287			-2.072
20104.000			-8.286			-2.072
20205.000			-8.285			-2.071
20304.000			-8.284			-2.071
20404.000			-8.282			-2.070
20504.000			-8.281			-2.070
20604.000			-8.280			-2.070
20703.000			-8.278			-2.070
20804.000			-8.277			-2.069
20904.000			-8.277			-2.069
21005.000			-8.276			-2.069
21104.000			-8.275			-2.069
21203.000			-8.274			-2.068
21305.000			-8.273			-2.068
21404.000			-8.272			-2.068
21504.000			-8.270			-2.068
21605.000			-8.269			-2.067
21704.000			-8.269			-2.067
21804.000			-8.267			-2.067
21904.000			-8.265			-2.066
22004.000			-8.264			-2.066
22104.000			-8.264			-2.066
22205.000			-8.263			-2.066
22304.000			-8.261			-2.065
22404.000			-8.260			-2.065
22505.000			-8.259			-2.065
22603.000			-8.258			-2.065
22704.000			-8.257			-2.064
22805.000			-8.256			-2.064
22904.000			-8.254			-2.064
23004.000			-8.253			-2.063
23104.000			-8.253			-2.063
23204.000			-8.252			-2.063
23304.000			-8.251			-2.063
23405.000			-8.250			-2.063
23504.000			-8.250			-2.063
23604.000			-8.249			-2.062
23705.000			-8.247			-2.062
23803.000			-8.245			-2.061
23905.000			-8.245			-2.061
24004.000			-8.244			-2.061
24104.000			-8.242			-2.061
24205.000			-8.242			-2.061
24304.000			-8.242			-2.060
24404.000			-8.239			-2.060
24504.000			-8.238			-2.060
24604.000			-8.238			-2.060
24704.000			-8.238			-2.059
24805.000			-8.237			-2.059
24904.000			-8.235			-2.059
25004.000			-8.234			-2.059
25105.000			-8.233			-2.058
25204.000			-8.231			-2.058
25304.000			-8.231			-2.058
25405.000			-8.231			-2.058
25504.000			-8.230			-2.058
25604.000			-8.230			-2.057
25704.000			-8.229			-2.057
25804.000			-8.226			-2.057
25904.000			-8.226			-2.057
26005.000			-8.226			-2.056
26104.000			-8.224			-2.056
26204.000			-8.223			-2.056
26305.000			-8.223			-2.056
26403.000			-8.223			-2.056
26504.000			-8.219			-2.055
26605.000			-8.219			-2.055
26704.000			-8.218			-2.055
26804.000			-8.218			-2.055
26903.000			-8.217			-2.054
27004.000			-8.216			-2.054
27105.000			-8.215			-2.054
27204.000			-8.214			-2.053
27304.000			-8.214			-2.053
27405.000			-8.212			-2.053
27504.000			-8.212			-2.053
27603.000			-8.211			-2.053
27705.000			-8.209			-2.052
27804.000			-8.208			-2.052
27904.000			-8.209			-2.052
28005.000			-8.207			-2.052
28104.000			-8.205			-2.051
28204.000			-8.205			-2.051
28304.000			-8.205			-2.051
28404.000			-8.205			-2.051
28504.000			-8.203			-2.051
28605.000			-8.202			-2.050
28704.000			-8.201			-2.050
28803.000			-8.200			-2.050
28905.000			-8.199			-2.050
29003.000			-8.199			-2.050
29104.000			-8.198			-2.050
29205.000			-8.197			-2.049
29304.000			-8.198			-2.049
29404.000			-8.196			-2.049
29505.000			-8.195			-2.049
29604.000			-8.194			-2.049
29703.000			-8.194			-2.048
29805.000			-8.193			-2.048
29904.000			-8.192			-2.048
30004.000			-8.192			-2.048
30105.000			-8.191			-2.048
30204.000			-8.190			-2.047
30305.000			-8.190			-2.047
30403.000			-8.188			-2.047
30504.000			-8.186			-2.047
30605.000			-8.186			-2.046
30704.000			-8.186			-2.046
30804.000			-8.185			-2.046
30904.000			-8.184			-2.046
31004.000			-8.182			-2.046
31103.000			-8.182			-2.045
31205.000			-8.181			-2.045
31304.000			-8.180			-2.045
31404.000			-8.181			-2.045
31505.000			-8.180			-2.045
31603.000			-8.178			-2.045
31704.000			-8.178			-2.044
31805.000			-8.178			-2.044
31904.000			-8.176			-2.044
32004.000			-8.175			-2.044
32105.000			-8.175			-2.044
32204.000			-8.175			-2.044
32303.000			-8.174			-2.044
32405.000			-8.174			-2.043
32504.000			-8.172			-2.043
32604.000			-8.171			-2.043
32705.000			-8.171			-2.043
32803.000			-8.170			-2.043
32904.000			-8.170			-2.042
33005.000			-8.169			-2.042
33104.000			-8.168			-2.042
33204.000			-8.168			-2.042
33304.000			-8.166			-2.041
33404.000			-8.165			-2.041
33503.000			-8.164			-2.041
33604.000			-8.165			-2.041
33704.000			-8.164			-2.041
33805.000			-8.163			-2.041
33904.000			-8.162			-2.041
34004.000			-8.162			-2.040
34105.000			-8.160			-2.040
34203.000			-8.159			-2.040
34304.000			-8.159			-2.040
34405.000			-8.158			-2.040
34504.000			-8.158			-2.039
34604.000			-8.157			-2.039
34705.000			-8.157			-2.039
34804.000			-8.156			-2.039
34903.000			-8.155			-2.039
35005.000			-8.154			-2.039
35104.000			-8.154			-2.038
35204.000			-8.152			-2.038
35305.000			-8.152			-2.038
35403.000			-8.151			-2.038
35504.000			-8.152			-2.038
35605.000			-8.151			-2.038
35704.000			-8.149			-2.037
35804.000			-8.149			-2.037
35905.000			-8.149			-2.037
36004.000			-8.148			-2.037
36103.000			-8.147			-2.037
36205.000			-8.146			-2.036
36304.000			-8.146			-2.037
36404.000			-8.145			-2.036
36505.000			-8.143			-2.036
36604.000			-8.143			-2.036
36705.000			-8.143			-2.036
36803.000			-8.142			-2.036
36904.000			-8.141			-2.035
37005.000			-8.141			-2.035
37104.000			-8.140			-2.035
37204.000			-8.140			-2.035
37304.000			-8.140			-2.035
37404.000			-8.138			-2.034
37504.000			-8.138			-2.035
37605.000			-8.138			-2.035
37704.000			-8.138			-2.035
37804.000			-8.137			-2.034
37905.000			-8.137			-2.034
38003.000			-8.136			-2.034
38104.000			-8.135			-2.034
38205.000			-8.133			-2.033
38304.000			-8.132			-2.033
38404.000			-8.132			-2.033
38505.000			-8.133			-2.033
38604.000			-8.133			-2.033
38703.000			-8.131			-2.033
38805.000			-8.130			-2.032
38904.000			-8.129			-2.032
39004.000			-8.129			-2.032
39105.000			-8.127			-2.032
39204.000			-8.127			-2.032
39304.000			-8.128			-2.032
39404.000			-8.127			-2.032
39504.000			-8.126			-2.031
39604.000			-8.125			-2.031
39704.000			-8.124			-2.031
39804.000			-8.124			-2.031
39905.000			-8.124			-2.031
40004.000			-8.123			-2.031
40103.000			-8.123			-2.031
40205.000			-8.122			-2.031
40304.000			-8.121			-2.030
40404.000			-8.120			-2.030
40505.000			-8.121			-2.030
40603.000			-8.120			-2.030
40704.000			-8.119			-2.030
40805.000			-8.119			-2.030
40904.000			-8.118			-2.030
41004.000			-8.117			-2.029
41105.000			-8.117			-2.029
41204.000			-8.116			-2.029
41303.000			-8.115			-2.029
41405.000			-8.116			-2.029
41504.000			-8.115			-2.029
41604.000			-8.114			-2.029
41705.000			-8.113			-2.028
41803.000			-8.112			-2.028
41904.000			-8.112			-2.028
42005.000			-8.111			-2.028
42104.000			-8.111			-2.028
42204.000			-8.110			-2.027
42305.000			-8.109			-2.027
42404.000			-8.109			-2.027
42503.000			-8.109			-2.027
42605.000			-8.108			-2.027
42704.000			-8.108			-2.027
42804.000			-8.107			-2.027
42905.000			-8.107			-2.027
43004.000			-8.107			-2.027
43105.000			-8.107			-2.027
43203.000			-8.105			-2.026
43304.000			-8.104			-2.026
43405.000			-8.103			-2.026
43504.000			-8.103			-2.026
43604.000			-8.104			-2.026
43704.000			-8.102			-2.026
43804.000			-8.101			-2.025
43904.000			-8.100			-2.025
44005.000			-8.100			-2.025
44104.000			-8.099			-2.025
44204.000			-8.099			-2.025
44305.000			-8.099			-2.025
44403.000			-8.099			-2.025
44504.000			-8.099			-2.025
44605.000			-8.098			-2.024
44704.000			-8.097			-2.024
44804.000			-8.095			-2.024
44905.000			-8.095			-2.024
45004.000			-8.095			-2.024
45103.000			-8.095			-2.024
45205.000			-8.096			-2.024
45304.000			-8.094			-2.024
45404.000			-8.093			-2.023
45505.000			-8.092			-2.023
45604.000			-8.093			-2.023
45704.000			-8.092			-2.023
45804.000			-8.091			-2.023
45904.000			-8.092			-2.023
46004.000			-8.091			-2.023
46104.000			-8.090			-2.022
46204.000			-8.089			-2.022
46303.000			-8.089			-2.022
46404.000			-8.088			-2.022
46503.000			-8.087			-2.022
46605.000			-8.088			-2.022
46704.000			-8.086			-2.022
46804.000			-8.087			-2.022
46905.000			-8.087			-2.022
47004.000			-8.085			-2.021
47104.000			-8.084			-2.021
47204.000			-8.084			-2.021
47304.000			-8.084			-2.021
47404.000			-8.082			-2.021
47505.000			-8.083			-2.021
47604.000			-8.083			-2.021
47703.000			-8.082			-2.020
47805.000			-8.081			-2.020
47904.000			-8.081			-2.020
48004.000			-8.080			-2.020
48105.000			-8.080			-2.020
48204.000			-8.079			-2.020
48304.000			-8.078			-2.019
48404.000			-8.077			-2.019
48504.000			-8.078			-2.019
48604.000			-8.077			-2.019
48705.000			-8.077			-2.019
48804.000			-8.077			-2.019
48904.000			-8.077			-2.019
49005.000			-8.074			-2.019
49103.000			-8.074			-2.018
49204.000			-8.073			-2.018
49305.000			-8.073			-2.018
49404.000			-8.073			-2.018
49505.000			-8.073			-2.018
49604.000			-8.072			-2.018
49704.000			-8.072			-2.018
49804.000			-8.071			-2.018
49904.000			-8.071			-2.018
50004.000			-8.070			-2.018
50105.000			-8.070			-2.018
50204.000			-8.069			-2.017
50304.000			-8.069			-2.017
50405.000			-8.068			-2.017
50503.000			-8.067			-2.017
50604.000			-8.067			-2.017
50705.000			-8.067			-2.017
50804.000			-8.067			-2.017
50904.000			-8.066			-2.017
51005.000			-8.066			-2.016
51104.000			-8.065			-2.016
51203.000			-8.064			-2.016
51305.000			-8.064			-2.016
51404.000			-8.063			-2.016
51504.000			-8.063			-2.016
51605.000			-8.063			-2.016
51703.000			-8.063			-2.016
51804.000			-8.061			-2.015
51905.000			-8.061			-2.015
52004.000			-8.061			-2.015
52104.000			-8.060			-2.015
52205.000			-8.060			-2.015
52304.000			-8.060			-2.015
52403.000			-8.060			-2.015
52505.000			-8.059			-2.015
52604.000			-8.058			-2.015
52705.000			-8.057			-2.014
52804.000			-8.057			-2.014
52904.000			-8.057			-2.014
53005.000			-8.057			-2.014
53104.000			-8.056			-2.014
53204.000			-8.056			-2.014
53305.000			-8.055			-2.014
53404.000			-8.055			-2.014
53504.000			-8.055			-2.014
53604.000			-8.054			-2.014
53704.000			-8.053			-2.013
53804.000			-8.053			-2.013
53905.000			-8.052			-2.013
54004.000			-8.052			-2.013
54104.000			-8.051			-2.013
54205.000			-8.051			-2.013
54303.000			-8.050			-2.013
54404.000			-8.050			-2.012
54505.000			-8.049			-2.012
54604.000			-8.049			-2.012
54704.000			-8.049			-2.012
54805.000			-8.048			-2.012
54904.000			-8.048			-2.012
55003.000			-8.046			-2.012
55105.000			-8.047			-2.012
55204.000			-8.046			-2.012
55304.000			-8.046			-2.011
55405.000			-8.046			-2.011
55503.000			-8.046			-2.011
55604.000			-8.044			-2.011
55705.000			-8.044			-2.011
55804.000			-8.045			-2.011
55905.000			-8.044			-2.011
56004.000			-8.044			-2.011
56104.000			-8.044			-2.011
56204.000			-8.042			-2.011
56304.000			-8.042			-2.010
56404.000			-8.041			-2.010
56505.000			-8.041			-2.010
56604.000			-8.042			-2.010
56704.000			-8.040			-2.010
56805.000			-8.040			-2.010
56903.000			-8.039			-2.010
57004.000			-8.039			-2.010
57105.000			-8.038			-2.010
57204.000			-8.038			-2.010
57304.000			-8.039			-2.010
57405.000			-8.038			-2.010
57504.000			-8.037			-2.009
57603.000			-8.038			-2.009
57705.000			-8.038			-2.009
57804.000			-8.036			-2.009
57904.000			-8.035			-2.009
58005.000			-8.034			-2.008
58104.000			-8.034			-2.008
58204.000			-8.035			-2.009
58304.000			-8.035			-2.009
58404.000			-8.032			-2.008
58504.000			-8.033			-2.008
58605.000			-8.034			-2.008
58704.000			-8.033			-2.008
58803.000			-8.032			-2.008
58905.000			-8.032			-2.008
59004.000			-8.031			-2.008
59105.000			-8.030			-2.007
59204.000			-8.030			-2.008
59304.000			-8.029			-2.007
59405.000			-8.029			-2.007
59503.000			-8.028			-2.007
59604.000			-8.029			-2.007
59705.000			-8.029			-2.007
59804.000			-8.027			-2.007
59904.000			-8.028			-2.007
60005.000			-8.028			-2.007
60104.000			-8.028			-2.007
60203.000			-8.026			-2.007
60305.000			-8.026			-2.007
60404.000			-8.026			-2.006
60504.000			-8.025			-2.006
60605.000			-8.024			-2.006
60704.000			-8.025			-2.006
60804.000			-8.025			-2.006
60904.000			-8.025			-2.006
61004.000			-8.024			-2.006
61104.000			-8.023			-2.006
61205.000			-8.022			-2.005
61304.000			-8.021			-2.005
61403.000			-8.021			-2.005
61505.000			-8.021			-2.005
61604.000			-8.021			-2.005
61704.000			-8.021			-2.005
61805.000			-8.021			-2.005
61904.000			-8.021			-2.005
62004.000			-8.019			-2.005
62103.000			-8.019			-2.005
62204.000			-8.019			-2.005
62305.000			-8.018			-2.005
62404.000			-8.018			-2.004
62504.000			-8.018			-2.005
62604.000			-8.018			-2.004
62704.000			-8.017			-2.004
62804.000			-8.017			-2.004
62905.000			-8.017			-2.004
63004.000			-8.016			-2.004
63104.000			-8.016			-2.004
63205.000			-8.016			-2.004
63303.000			-8.015			-2.004
63404.000			-8.014			-2.003
63505.000			-8.013			-2.003
63604.000			-8.013			-2.003
63704.000			-8.013			-2.003
63805.000			-8.012			-2.003
63904.000			-8.011			-2.003
64003.000			-8.011			-2.003
64105.000			-8.012			-2.003
64204.000			-8.011			-2.003
64304.000			-8.011			-2.003
64405.000			-8.011			-2.003
64503.000			-8.011			-2.003
64604.000			-8.010			-2.003
64705.000			-8.011			-2.003
64804.000			-8.009			-2.002
64904.000			-8.008			-2.002
65005.000			-8.008			-2.002
65104.000			-8.008			-2.002
65203.000			-8.007			-2.002
65305.000			-8.006			-2.002
65404.000			-8.006			-2.002
65505.000			-8.006			-2.002
65604.000			-8.006			-2.001
65704.000			-8.005			-2.001
65805.000			-8.006			-2.001
65903.000			-8.006			-2.001
66004.000			-8.004			-2.001
66105.000			-8.004			-2.001
66204.000			-8.005			-2.001
66304.000			-8.004			-2.001
66404.000			-8.004			-2.001
66504.000			-8.002			-2.001
66603.000			-8.003			-2.001
66705.000			-8.002			-2.001
66804.000			-8.001			-2.000
66904.000			-8.002			-2.001
67005.000			-8.002			-2.000
67103.000			-8.000			-2.000
67204.000			-8.000			-2.000
67305.000			-8.000			-2.000
67404.000			-7.999			-2.000
67504.000			-7.999			-2.000
67605.000			-7.999			-2.000
67704.000			-7.999			-2.000
67803.000			-7.997			-1.999
67905.000			-7.998			-1.999
68003.000			-7.997			-1.999
68104.000			-7.997			-1.999
68205.000			-7.997			-1.999
68304.000			-7.997			-1.999
68404.000			-7.996			-1.999
68504.000			-7.995			-1.999
68604.000			-7.994			-1.999
68703.000			-7.994			-1.999
68804.000			-7.994			-1.998
68904.000			-7.993			-1.998
69005.000			-7.993			-1.998
69104.000			-7.993			-1.998
69204.000			-7.994			-1.998
69305.000			-7.993			-1.998
69403.000			-7.993			-1.998
69504.000			-7.993			-1.998
69605.000			-7.992			-1.998
69704.000			-7.990			-1.998
69804.000			-7.991			-1.998
69905.000			-7.991			-1.998
70004.000			-7.990			-1.997
70104.000			-7.991			-1.998
70205.000			-7.991			-1.998
70303.000			-7.990			-1.997
70404.000			-7.989			-1.997
70505.000			-7.989			-1.997
70604.000			-7.988			-1.997
70704.000			-7.988			-1.997
70805.000			-7.987			-1.997
70904.000			-7.988			-1.997
71003.000			-7.987			-1.997
71105.000			-7.987			-1.997
71204.000			-7.988			-1.997
71304.000			-7.987			-1.997
71405.000			-7.986			-1.997
71504.000			-7.985			-1.996
71604.000			-7.985			-1.996
71703.000			-7.984			-1.996
71804.000			-7.984			-1.996
71905.000			-7.984			-1.996
72004.000			-7.984			-1.996
72104.000			-7.984			-1.996
72205.000			-7.983			-1.996
72304.000			-7.984			-1.996
72403.000			-7.983			-1.996
72505.000			-7.982			-1.995
72604.000			-7.981			-1.995
72704.000			-7.981			-1.995
72805.000			-7.982			-1.996
72904.000			-7.981			-1.995
73004.000			-7.979			-1.995
73104.000			-7.980			-1.995
73204.000			-7.980			-1.995
73303.000			-7.979			-1.995
73405.000			-7.979			-1.995
73504.000			-7.979			-1.995
73604.000			-7.978			-1.994
73705.000			-7.978			-1.994
73804.000			-7.977			-1.994
73904.000			-7.978			-1.995
74004.000			-7.978			-1.995
74104.000			-7.976			-1.994
74204.000			-7.977			-1.994
74305.000			-7.975			-1.994
74404.000			-7.975			-1.994
74504.000			-7.976			-1.994
74605.000			-7.976			-1.994
74703.000			-7.976			-1.994
74804.000			-7.975			-1.994
74905.000			-7.974			-1.994
75004.000			-7.974			-1.994
75105.000			-7.975			-1.994
75204.000			-7.974			-1.994
75304.000			-7.974			-1.993
75404.000			-7.973			-1.993
75504.000			-7.974			-1.993
75604.000			-7.972			-1.993
75705.000			-7.972			-1.993
75804.000			-7.972			-1.993
75904.000			-7.971			-1.993
76005.000			-7.971			-1.993
76103.000			-7.971			-1.993
76204.000			-7.971			-1.993
76305.000			-7.970			-1.992
76404.000			-7.970			-1.992
76504.000			-7.970			-1.993
76605.000			-7.970			-1.993
76704.000			-7.968			-1.992
76804.000			-7.968			-1.992
76905.000			-7.968			-1.992
77003.000			-7.968			-1.992
77104.000			-7.968			-1.992
77205.000			-7.966			-1.992
77304.000			-7.966			-1.992
77404.000			-7.967			-1.992
77505.000			-7.966			-1.992
77604.000			-7.966			-1.992
77703.000			-7.966			-1.991
77805.000			-7.965			-1.991
77904.000			-7.965			-1.991
78004.000			-7.965			-1.991
78105.000			-7.965			-1.991
78204.000			-7.965			-1.991
78305.000			-7.965			-1.991
78404.000			-7.964			-1.991
78504.000			-7.963			-1.991
78604.000			-7.963			-1.991
78704.000			-7.963			-1.991
78804.000			-7.963			-1.991
78905.000			-7.963			-1.991
79004.000			-7.962			-1.991
79104.000			-7.961			-1.990
79205.000			-7.961			-1.990
79303.000			-7.962			-1.991
79404.000			-7.960			-1.990
79505.000			-7.958			-1.990
79604.000			-7.959			-1.990
79704.000			-7.959			-1.990
79805.000			-7.960			-1.990
79904.000			-7.959			-1.990
80003.000			-7.958			-1.990
80105.000			-7.959			-1.990
80204.000			-7.959			-1.990
80304.000			-7.957			-1.989
80405.000			-7.957			-1.989
80504.000			-7.957			-1.989
80604.000			-7.958			-1.989
80704.000			-7.958			-1.990
80804.000			-7.957			-1.989
80904.000			-7.957			-1.989
81005.000			-7.956			-1.989
81104.000			-7.955			-1.989
81204.000			-7.955			-1.989
81305.000			-7.955			-1.989
81403.000			-7.955			-1.989
81505.000			-7.954			-1.988
81604.000			-7.954			-1.988
81704.000			-7.955			-1.989
81805.000			-7.955			-1.989
81904.000			-7.953			-1.988
82004.000			-7.952			-1.988
82105.000			-7.953			-1.988
82204.000			-7.953			-1.988
82303.000			-7.952			-1.988
82405.000			-7.952			-1.988
82504.000			-7.952			-1.988
82604.000			-7.951			-1.988
82705.000			-7.952			-1.988
82804.000			-7.951			-1.988
82904.000			-7.950			-1.988
83004.000			-7.951			-1.988
83104.000			-7.949			-1.987
83204.000			-7.949			-1.987
83305.000			-7.949			-1.987
83404.000			-7.949			-1.987
83504.000			-7.949			-1.987
83605.000			-7.949			-1.987
83703.000			-7.948			-1.987
83804.000			-7.948			-1.987
83905.000			-7.947			-1.987
84004.000			-7.948			-1.987
84104.000			-7.948			-1.987
84205.000			-7.948			-1.987
84304.000			-7.947			-1.987
84403.000			-7.945			-1.986
84505.000			-7.946			-1.986
84604.000			-7.945			-1.986
84705.000			-7.944			-1.986
84804.000			-7.945			-1.986
84904.000			-7.945			-1.986
85005.000			-7.945			-1.986
85104.000			-7.944			-1.986
85204.000			-7.945			-1.986
85304.000			-7.944			-1.986
85404.000			-7.944			-1.986
85504.000			-7.944			-1.986
85605.000			-7.943			-1.986
85704.000			-7.943			-1.986
85804.000			-7.942			-1.985
85905.000			-7.943			-1.986
86003.000			-7.942			-1.986
86104.000			-7.942			-1.985
86205.000			-7.942			-1.985
86304.000			-7.942			-1.986
86404.000			-7.942			-1.985
86505.000			-7.941			-1.985
86604.000			-7.939			-1.985
86703.000			-7.940			-1.985
86805.000			-7.939			-1.985
86904.000			-7.938			-1.985
87004.000			-7.938			-1.985
87105.000			-7.939			-1.985
87204.000			-7.939			-1.985
87304.000			-7.938			-1.984
87404.000			-7.938			-1.984
87504.000			-7.938			-1.985
87604.000			-7.938			-1.984
87704.000			-7.937			-1.984
87804.000			-7.937			-1.984
87905.000			-7.937			-1.984
88004.000			-7.937			-1.984
88103.000			-7.936			-1.984
88205.000			-7.936			-1.984
88303.000			-7.936			-1.984
88404.000			-7.935			-1.984
88505.000			-7.935			-1.984
88604.000			-7.935			-1.984
88704.000			-7.935			-1.984
88805.000			-7.933			-1.983
88904.000			-7.933			-1.983
89003.000			-7.934			-1.983
89105.000			-7.934			-1.983
89204.000			-7.933			-1.983
89304.000			-7.932			-1.983
89405.000			-7.933			-1.983
89504.000			-7.933			-1.983
89604.000			-7.932			-1.983
89704.000			-7.932			-1.983
89804.000			-7.931			-1.983
89904.000			-7.930			-1.982
90005.000			-7.930			-1.982
90104.000			-7.930			-1.983
90204.000			-7.930			-1.982
90305.000			-7.930			-1.982
90403.000			-7.929			-1.982
90504.000			-7.928			-1.982
90605.000			-7.930			-1.982
90704.000			-7.929			-1.982
90804.000			-7.929			-1.982
90904.000			-7.928			-1.982
91004.000			-7.928			-1.982
91103.000			-7.927			-1.982
91204.000			-7.928			-1.982
91304.000			-7.928			-1.982
91405.000			-7.926			-1.982
91504.000			-7.926			-1.982
91604.000			-7.926			-1.981
91705.000			-7.926			-1.982
91803.000			-7.927			-1.982
91904.000			-7.927			-1.982
92005.000			-7.927			-1.982
92104.000			-7.926			-1.981
92204.000			-7.924			-1.981
92305.000			-7.925			-1.981
92404.000			-7.925			-1.981
92503.000			-7.923			-1.981
92605.000			-7.923			-1.981
92704.000			-7.924			-1.981
92804.000			-7.923			-1.981
92905.000			-7.924			-1.981
93004.000			-7.923			-1.981
93104.000			-7.923			-1.981
93204.000			-7.922			-1.981
93304.000			-7.921			-1.980
93403.000			-7.923			-1.981
93505.000			-7.923			-1.981
93604.000			-7.922			-1.980
93704.000			-7.921			-1.980
93805.000			-7.920			-1.980
93904.000			-7.921			-1.980
94004.000			-7.920			-1.980
94103.000			-7.920			-1.980
94204.000			-7.919			-1.980
94305.000			-7.919			-1.980
94404.000			-7.920			-1.980
94504.000			-7.920			-1.980
94605.000			-7.920			-1.980
94704.000			-7.918			-1.980
94803.000			-7.918			-1.979
94905.000			-7.918			-1.980
95004.000			-7.918			-1.980
95104.000			-7.918			-1.980
95205.000			-7.918			-1.980
95304.000			-7.917			-1.979
95404.000			-7.916			-1.979
95504.000			-7.916			-1.979
95604.000			-7.916			-1.979
95704.000			-7.917			-1.979
95805.000			-7.916			-1.979
95904.000			-7.916			-1.979
96004.000			-7.915			-1.979
96105.000			-7.915			-1.979
96203.000			-7.916			-1.979
96304.000			-7.915			-1.979
96405.000			-7.914			-1.979
96504.000			-7.914			-1.979
96604.000			-7.914			-1.979
96705.000			-7.914			-1.978
96804.000			-7.914			-1.978
96903.000			-7.914			-1.979
97005.000			-7.913			-1.978
97104.000			-7.913			-1.978
97204.000			-7.913			-1.978
97305.000			-7.912			-1.978
97404.000			-7.912			-1.978
97505.000			-7.913			-1.978
97603.000			-7.913			-1.978
97704.000			-7.912			-1.978
97805.000			-7.912			-1.978
97904.000			-7.912			-1.978
98004.000			-7.910			-1.978
98105.000			-7.910			-1.978
98204.000			-7.910			-1.977
98303.000			-7.910			-1.977
98405.000			-7.910			-1.977
98504.000			-7.909			-1.977
98604.000			-7.909			-1.977
98705.000			-7.909			-1.977
98804.000			-7.909			-1.977
98904.000			-7.909			-1.977
99005.000			-7.908			-1.977
99104.000			-7.908			-1.977
99203.000			-7.907			-1.977
99305.000			-7.907			-1.977
99404.000			-7.907			-1.977
99504.000			-7.908			-1.977
99605.000			-7.908			-1.977
99704.000			-7.906			-1.977
99804.000			-7.906			-1.977
99904.000			-7.906			-1.976
100004.000			-7.906			-1.977
100104.000			-7.905			-1.976
100205.000			-7.904			-1.976
100304.000			-7.905			-1.976
100404.000			-7.905			-1.976
100505.000			-7.905			-1.976
100603.000			-7.905			-1.976
100705.000			-7.904			-1.976
100804.000			-7.903			-1.976
100904.000			-7.903			-1.976
101005.000			-7.904			-1.976
101104.000			-7.904			-1.976
101204.000			-7.904			-1.976
101304.000			-7.903			-1.976
101404.000			-7.903			-1.976
101504.000			-7.903			-1.976
101605.000			-7.902			-1.975
101704.000			-7.901			-1.975
101804.000			-7.902			-1.975
101905.000			-7.901			-1.975
102003.000			-7.901			-1.975
102104.000			-7.901			-1.975
102205.000			-7.900			-1.975
102304.000			-7.899			-1.975
102404.000			-7.900			-1.975
102505.000			-7.900			-1.975
102604.000			-7.900			-1.975
102703.000			-7.900			-1.975
102805.000			-7.900			-1.975
102904.000			-7.900			-1.975
103004.000			-7.898			-1.975
103105.000			-7.898			-1.975
103204.000			-7.899			-1.975
103304.000			-7.898			-1.974
103404.000			-7.897			-1.974
103504.000			-7.897			-1.974
103603.000			-7.897			-1.974
103705.000			-7.898			-1.974
103804.000			-7.897			-1.974
103905.000			-7.897			-1.974
104004.000			-7.897			-1.974
104104.000			-7.897			-1.974
104205.000			-7.896			-1.974
104303.000			-7.896			-1.974
104404.000			-7.895			-1.974
104505.000			-7.895			-1.974
104604.000			-7.895			-1.974
104704.000			-7.894			-1.974
104805.000			-7.894			-1.974
104904.000			-7.895			-1.974
105003.000			-7.895			-1.974
105105.000			-7.894			-1.974
105204.000			-7.895			-1.974
105304.000			-7.895			-1.974
105405.000			-7.893			-1.973
105504.000			-7.894			-1.973
105604.000			-7.893			-1.973
105705.000			-7.893			-1.973
105804.000			-7.892			-1.973
105903.000			-7.890			-1.973
106005.000			-7.890			-1.973
106104.000			-7.891			-1.973
106204.000			-7.892			-1.973
106305.000			-7.891			-1.973
106404.000			-7.890			-1.972
106504.000			-7.890			-1.973
106604.000			-7.891			-1.973
106704.000			-7.890			-1.973
106804.000			-7.890			-1.972
106904.000			-7.890			-1.972
107004.000			-7.890			-1.973
107105.000			-7.890			-1.972
107204.000			-7.889			-1.972
107303.000			-7.889			-1.972
107405.000			-7.889			-1.972
107503.000			-7.889			-1.972
107604.000			-7.888			-1.972
107705.000			-7.888			-1.972
107804.000			-7.888			-1.972
107904.000			-7.888			-1.972
108005.000			-7.888			-1.972
108104.000			-7.887			-1.972
108203.000			-7.887			-1.972
108305.000			-7.887			-1.972
108403.000			-7.887			-1.972
108504.000			-7.887			-1.972
108605.000			-7.888			-1.972
108704.000			-7.887			-1.972
108804.000			-7.885			-1.971
108905.000			-7.885			-1.971
109004.000			-7.885			-1.971
109103.000			-7.885			-1.971
109205.000			-7.884			-1.971
109304.000			-7.884			-1.971
109404.000			-7.884			-1.971
109505.000			-7.884			-1.971
109604.000			-7.884			-1.971
109704.000			-7.883			-1.971
109804.000			-7.883			-1.971
109904.000			-7.883			-1.971
110003.000			-7.884			-1.971
110105.000			-7.883			-1.971
110204.000			-7.882			-1.971
110305.000			-7.882			-1.971
110404.000			-7.882			-1.971
110504.000			-7.882			-1.971
110605.000			-7.882			-1.970
110703.000			-7.881			-1.970
110804.000			-7.881			-1.970
110905.000			-7.880			-1.970
111004.000			-7.880			-1.970
111104.000			-7.880			-1.970
111205.000			-7.880			-1.970
111304.000			-7.880			-1.970
111403.000			-7.881			-1.970
111505.000			-7.880			-1.970
111604.000			-7.879			-1.970
111704.000			-7.879			-1.970
111805.000			-7.879			-1.970
111904.000			-7.879			-1.970
112004.000			-7.879			-1.970
112104.000			-7.879			-1.970
112204.000			-7.878			-1.970
112304.000			-7.878			-1.970
112405.000			-7.878			-1.969
112504.000			-7.879			-1.970
112604.000			-7.879			-1.970
112705.000			-7.877			-1.969
112803.000			-7.876			-1.969
112904.000			-7.877			-1.969
113005.000			-7.878			-1.969
113104.000			-7.877			-1.969
113204.000			-7.876			-1.969
113304.000			-7.875			-1.969
113404.000			-7.875			-1.969
113505.000			-7.876			-1.969
113604.000			-7.876			-1.969
113703.000			-7.875			-1.969
113805.000			-7.875			-1.969
113904.000			-7.875			-1.969
114004.000			-7.876			-1.969
114105.000			-7.875			-1.969
114204.000			-7.875			-1.969
114304.000			-7.874			-1.969
114404.000			-7.873			-1.968
114504.000			-7.873			-1.968
114604.000			-7.873			-1.968
114705.000			-7.873			-1.968
114804.000			-7.873			-1.968
114904.000			-7.872			-1.968
115005.000			-7.872			-1.968
115103.000			-7.873			-1.968
115204.000			-7.872			-1.968
115305.000			-7.871			-1.968
115404.000			-7.871			-1.968
115504.000			-7.872			-1.968
115605.000			-7.871			-1.968
115704.000			-7.871			-1.968
115804.000			-7.870			-1.968
115905.000			-7.870			-1.968
116003.000			-7.870			-1.968
116104.000			-7.870			-1.967
116205.000			-7.869			-1.967
116304.000			-7.869			-1.967
116404.000			-7.869			-1.967
116504.000			-7.869			-1.967
116604.000			-7.869			-1.967
116703.000			-7.868			-1.967
116804.000			-7.868			-1.967
116904.000			-7.869			-1.967
117005.000			-7.869			-1.967
117104.000			-7.868			-1.967
117204.000			-7.869			-1.967
117305.000			-7.868			-1.967
117404.000			-7.868			-1.967
117504.000			-7.868			-1.967
117604.000			-7.867			-1.967
117704.000			-7.866			-1.966
117804.000			-7.867			-1.967
117905.000			-7.867			-1.967
118004.000			-7.866			-1.966
118104.000			-7.866			-1.967
118205.000			-7.867			-1.967
118303.000			-7.867			-1.967
118404.000			-7.866			-1.967
118505.000			-7.866			-1.966
118604.000			-7.866			-1.966
118704.000			-7.865			-1.966
118805.000			-7.865			-1.966
118904.000			-7.864			-1.966
119003.000			-7.864			-1.966
119105.000			-7.864			-1.966
119203.000			-7.865			-1.966
119304.000			-7.864			-1.966
119405.000			-7.863			-1.966
119504.000			-7.864			-1.966
119604.000			-7.864			-1.966
119704.000			-7.864			-1.966
119804.000			-7.864			-1.966
119903.000			-7.862			-1.965
120004.000			-7.862			-1.965
120104.000			-7.862			-1.966
120205.000			-7.862			-1.965
120304.000			-7.860			-1.965
120404.000			-7.860			-1.965
120505.000			-7.861			-1.965
120603.000			-7.861			-1.965
120704.000			-7.861			-1.965
120805.000			-7.862			-1.965
120904.000			-7.861			-1.965
121004.000			-7.860			-1.965
121105.000			-7.860			-1.965
121204.000			-7.861			-1.965
121303.000			-7.861			-1.965
121405.000			-7.861			-1.965
121504.000			-7.860			-1.965
121604.000			-7.860			-1.965
121705.000			-7.859			-1.965
121804.000			-7.859			-1.965
121904.000			-7.859			-1.965
122005.000			-7.859			-1.965
122104.000			-7.858			-1.964
122203.000			-7.858			-1.964
122305.000			-7.857			-1.964
122404.000			-7.859			-1.965
122504.000			-7.859			-1.965
122605.000			-7.859			-1.965
122704.000			-7.858			-1.965
122804.000			-7.857			-1.964
122903.000			-7.857			-1.964
123004.000			-7.857			-1.964
123105.000			-7.857			-1.964
123204.000			-7.856			-1.964
123304.000			-7.856			-1.964
123405.000			-7.855			-1.964
123504.000			-7.855			-1.964
123603.000			-7.854			-1.963
123705.000			-7.855			-1.964
123804.000			-7.855			-1.964
123904.000			-7.854			-1.964
124005.000			-7.854			-1.964
124104.000			-7.856			-1.964
124204.000			-7.855			-1.964
124305.000			-7.855			-1.964
124404.000			-7.854			-1.963
124503.000			-7.854			-1.963
124605.000			-7.854			-1.964
124704.000			-7.854			-1.963
124804.000			-7.854			-1.963
124905.000			-7.853			-1.963
125004.000			-7.853			-1.963
125104.000			-7.853			-1.963
125204.000			-7.853			-1.963
125304.000			-7.853			-1.963
125404.000			-7.852			-1.963
125505.000			-7.852			-1.963
125604.000			-7.852			-1.963
125704.000			-7.852			-1.963
125805.000			-7.851			-1.963
125903.000			-7.850			-1.963
126004.000			-7.851			-1.963
126105.000			-7.851			-1.963
126204.000			-7.851			-1.963
126305.000			-7.851			-1.963
126404.000			-7.851			-1.963
126504.000			-7.850			-1.962
126604.000			-7.850			-1.962
126704.000			-7.850			-1.963
126803.000			-7.849			-1.962
126905.000			-7.849			-1.962
127004.000			-7.850			-1.963
127104.000			-7.850			-1.962
127205.000			-7.849			-1.962
127304.000			-7.849			-1.962
127404.000			-7.848			-1.962
127504.000			-7.848			-1.962
127604.000			-7.849			-1.962
127704.000			-7.848			-1.962
127805.000			-7.848			-1.962
127904.000			-7.848			-1.962
128004.000			-7.847			-1.962
128105.000			-7.847			-1.962
128203.000			-7.847			-1.962
128304.000			-7.847			-1.962
128405.000			-7.847			-1.962
128504.000			-7.847			-1.962
128604.000			-7.846			-1.962
128705.000			-7.846			-1.962
128804.000			-7.845			-1.961
128904.000			-7.845			-1.961
129005.000			-7.845			-1.961
129103.000			-7.846			-1.962
129204.000			-7.847			-1.962
129305.000			-7.847			-1.962
129404.000			-7.844			-1.961
129505.000			-7.844			-1.961
129604.000			-7.844			-1.961
129704.000			-7.845			-1.961
129804.000			-7.846			-1.961
129904.000			-7.844			-1.961
130003.000			-7.843			-1.961
130105.000			-7.844			-1.961
130204.000			-7.844			-1.961
130304.000			-7.844			-1.961
130405.000			-7.843			-1.961
130504.000			-7.843			-1.961
130604.000			-7.843			-1.961
130704.000			-7.842			-1.960
130804.000			-7.842			-1.961
130904.000			-7.842			-1.961
131005.000			-7.842			-1.961
131104.000			-7.840			-1.960
131204.000			-7.841			-1.960
131305.000			-7.843			-1.961
131403.000			-7.842			-1.960
131504.000			-7.841			-1.960
131605.000			-7.842			-1.960
131704.000			-7.840			-1.960
131804.000			-7.840			-1.960
131905.000			-7.841			-1.960
132004.000			-7.841			-1.960
132104.000			-7.840			-1.960
132205.000			-7.841			-1.960
132303.000			-7.839			-1.960
132404.000			-7.839			-1.960
132505.000			-7.839			-1.960
132604.000			-7.840			-1.960
132705.000			-7.839			-1.960
132804.000			-7.838			-1.960
132904.000			-7.839			-1.960
133005.000			-7.838			-1.960
133104.000			-7.839			-1.960
133203.000			-7.838			-1.960
133305.000			-7.838			-1.960
133404.000			-7.838			-1.959
133504.000			-7.838			-1.959
133605.000			-7.838			-1.959
133704.000			-7.837			-1.959
133804.000			-7.838			-1.959
133905.000			-7.837			-1.959
134004.000			-7.837			-1.959
134103.000			-7.837			-1.959
134205.000			-7.838			-1.959
134304.000			-7.837			-1.959
134404.000			-7.836			-1.959
134505.000			-7.836			-1.959
134604.000			-7.836			-1.959
134704.000			-7.836			-1.959
134804.000			-7.835			-1.959
134904.000			-7.835			-1.959
135003.000			-7.836			-1.959
135105.000			-7.834			-1.959
135204.000			-7.835			-1.959
135304.000			-7.834			-1.959
135405.000			-7.834			-1.958
135504.000			-7.834			-1.959
135604.000			-7.834			-1.958
135704.000			-7.834			-1.959
135804.000			-7.835			-1.959
135903.000			-7.833			-1.958
136004.000			-7.834			-1.958
136104.000			-7.834			-1.959
136205.000			-7.834			-1.958
136304.000			-7.832			-1.958
136404.000			-7.831			-1.958
136505.000			-7.832			-1.958
136603.000			-7.832			-1.958
136704.000			-7.832			-1.958
136804.000			-7.832			-1.958
136904.000			-7.832			-1.958
137004.000			-7.831			-1.958
137105.000			-7.831			-1.958
137204.000			-7.831			-1.958
137304.000			-7.830			-1.958
137405.000			-7.831			-1.958
137503.000			-7.831			-1.958
137604.000			-7.831			-1.958
137705.000			-7.830			-1.958
137804.000			-7.830			-1.957
137904.000			-7.829			-1.957
138005.000			-7.830			-1.958
138104.000			-7.830			-1.958
138204.000			-7.830			-1.957
138305.000			-7.830			-1.957
138403.000			-7.829			-1.957
138504.000			-7.829			-1.957
138605.000			-7.829			-1.957
138704.000			-7.829			-1.957
138804.000			-7.828			-1.957
138904.000			-7.827			-1.957
139004.000			-7.827			-1.957
139105.000			-7.827			-1.957
139204.000			-7.828			-1.957
139303.000			-7.827			-1.957
139405.000			-7.828			-1.957
139503.000			-7.827			-1.957
139604.000			-7.826			-1.957
139705.000			-7.826			-1.957
139804.000			-7.826			-1.956
139904.000			-7.827			-1.957
140005.000			-7.826			-1.957
140104.000			-7.827			-1.957
140203.000			-7.826			-1.957
140305.000			-7.825			-1.956
140403.000			-7.825			-1.956
140504.000			-7.826			-1.957
140605.000			-7.826			-1.957
140704.000			-7.827			-1.957
140804.000			-7.826			-1.956
140905.000			-7.824			-1.956
141004.000			-7.825			-1.956
141103.000			-7.825			-1.956
141205.000			-7.824			-1.956
141304.000			-7.824			-1.956
141404.000			-7.824			-1.956
141505.000			-7.826			-1.956
141604.000			-7.824			-1.956
141704.000			-7.824			-1.956
141805.000			-7.823			-1.956
141904.000			-7.822			-1.956
142003.000			-7.823			-1.956
142105.000			-7.824			-1.956
142204.000			-7.824			-1.956
142305.000			-7.824			-1.956
142404.000			-7.822			-1.955
142504.000			-7.822			-1.956
142605.000			-7.822			-1.956
142704.000			-7.821			-1.955
142804.000			-7.821			-1.955
142904.000			-7.821			-1.955
143004.000			-7.821			-1.955
143104.000			-7.821			-1.955
143205.000			-7.822			-1.956
143304.000			-7.821			-1.955
143404.000			-7.821			-1.955
143505.000			-7.822			-1.955
143603.000			-7.821			-1.955
143704.000			-7.820			-1.955
143804.000			-7.821			-1.955
143904.000			-7.820			-1.955
144004.000			-7.821			-1.955
144105.000			-7.821			-1.955
144204.000			-7.820			-1.955
144304.000			-7.819			-1.955
144405.000			-7.819			-1.955
144503.000			-7.819			-1.955
144604.000			-7.819			-1.955
144705.000			-7.819			-1.955
144804.000			-7.818			-1.954
144904.000			-7.818			-1.955
145005.000			-7.818			-1.954
145104.000			-7.816			-1.954
145204.000			-7.818			-1.954
145305.000			-7.817			-1.954
145403.000			-7.817			-1.954
145505.000			-7.817			-1.954
145604.000			-7.817			-1.954
145704.000			-7.816			-1.954
145805.000			-7.817			-1.954
145904.000			-7.817			-1.954
146004.000			-7.816			-1.954
146105.000			-7.816			-1.954
146204.000			-7.816			-1.954
146303.000			-7.816			-1.954
146405.000			-7.815			-1.954
146504.000			-7.814			-1.954
146604.000			-7.814			-1.953
146705.000			-7.815			-1.954
146804.000			-7.815			-1.954
146904.000			-7.816			-1.954
147005.000			-7.816			-1.954
147104.000			-7.816			-1.954
147203.000			-7.814			-1.954
147305.000			-7.814			-1.954
147404.000			-7.814			-1.953
147504.000			-7.813			-1.953
147605.000			-7.813			-1.953
147704.000			-7.813			-1.953
147804.000			-7.814			-1.954
147905.000			-7.815			-1.954
148004.000			-7.813			-1.953
148103.000			-7.813			-1.953
148205.000			-7.812			-1.953
148304.000			-7.812			-1.953
148404.000			-7.813			-1.953
148505.000			-7.812			-1.953
148604.000			-7.811			-1.953
148705.000			-7.813			-1.953
148804.000			-7.813			-1.953
148904.000			-7.812			-1.953
149004.000			-7.812			-1.953
149104.000			-7.812			-1.953
149204.000			-7.811			-1.953
149305.000			-7.812			-1.953
149404.000			-7.812			-1.953
149504.000			-7.812			-1.953
149605.000			-7.812			-1.953
149704.000			-7.811			-1.953
149804.000			-7.810			-1.952
149904.000			-7.810			-1.952
150004.000			-7.810			-1.952
150104.000			-7.809			-1.952
150205.000			-7.809			-1.952
150304.000			-7.809			-1.952
150404.000			-7.809			-1.952
150505.000			-7.809			-1.952
150604.000			-7.809			-1.952
150704.000			-7.809			-1.952
150804.000			-7.809			-1.952
150904.000			-7.808			-1.952
151004.000			-7.808			-1.952
151105.000			-7.808			-1.952
151204.000			-7.809			-1.952
151304.000			-7.809			-1.952
151405.000			-7.808			-1.952
151504.000			-7.808			-1.952
151604.000			-7.808			-1.952
151703.000			-7.807			-1.952
151804.000			-7.808			-1.952
151905.000			-7.807			-1.952
152004.000			-7.807			-1.952
152104.000			-7.807			-1.952
152205.000			-7.807			-1.952
152304.000			-7.807			-1.952
152404.000			-7.807			-1.952
152505.000			-7.806			-1.951
152603.000			-7.806			-1.952
152704.000			-7.806			-1.951
152805.000			-7.805			-1.951
152904.000			-7.805			-1.951
153004.000			-7.804			-1.951
153105.000			-7.804			-1.951
153204.000			-7.804			-1.951
153303.000			-7.803			-1.951
153405.000			-7.804			-1.951
153503.000			-7.804			-1.951
153604.000			-7.804			-1.951
153705.000			-7.804			-1.951
153804.000			-7.804			-1.951
153904.000			-7.805			-1.951
154005.000			-7.804			-1.951
154104.000			-7.804			-1.951
154203.000			-7.803			-1.951
154305.000			-7.803			-1.951
154404.000			-7.802			-1.951
154504.000			-7.802			-1.950
154605.000			-7.802			-1.951
154704.000			-7.803			-1.951
154804.000			-7.802			-1.951
154904.000			-7.803			-1.951
155004.000			-7.802			-1.951
155103.000			-7.802			-1.950
155204.000			-7.803			-1.951
155304.000			-7.802			-1.950
155405.000			-7.801			-1.950
155504.000			-7.801			-1.950
155604.000			-7.802			-1.950
155705.000			-7.801			-1.950
155804.000			-7.800			-1.950
155904.000			-7.800			-1.950
156004.000			-7.800			-1.950
156104.000			-7.801			-1.950
156204.000			-7.800			-1.950
156305.000			-7.800			-1.950
156404.000			-7.800			-1.950
156504.000			-7.799			-1.950
156605.000			-7.799			-1.950
156704.000			-7.799			-1.950
156804.000			-7.798			-1.950
156904.000			-7.799			-1.950
157004.000			-7.798			-1.949
157104.000			-7.799			-1.950
157205.000			-7.798			-1.950
157304.000			-7.798			-1.950
157404.000			-7.798			-1.950
157505.000			-7.798			-1.949
157604.000			-7.798			-1.949
157704.000			-7.798			-1.950
157804.000			-7.798			-1.950
157904.000			-7.797			-1.949
158003.000			-7.796			-1.949
158105.000			-7.797			-1.949
158204.000			-7.798			-1.950
158305.000			-7.797			-1.949
158404.000			-7.797			-1.949
158504.000			-7.798			-1.950
158605.000			-7.797			-1.949
158704.000			-7.796			-1.949
158804.000			-7.796			-1.949
158904.000			-7.796			-1.949
159004.000			-7.797			-1.949
159104.000			-7.795			-1.949
159205.000			-7.795			-1.949
159304.000			-7.795			-1.949
159404.000			-7.795			-1.949
159505.000			-7.796			-1.949
159604.000			-7.795			-1.949
159704.000			-7.794			-1.948
159804.000			-7.795			-1.949
159904.000			-7.795			-1.949
160003.000			-7.794			-1.949
160105.000			-7.794			-1.948
160204.000			-7.793			-1.948
160304.000			-7.794			-1.948
160405.000			-7.793			-1.948
160504.000			-7.793			-1.948
160604.000			-7.794			-1.949
160704.000			-7.793			-1.948
160804.000			-7.793			-1.948
160903.000			-7.794			-1.949
161005.000			-7.794			-1.948
161104.000			-7.794			-1.948
161204.000			-7.793			-1.948
161305.000			-7.793			-1.948
161404.000			-7.792			-1.948
161505.000			-7.793			-1.948
161603.000			-7.793			-1.948
161704.000			-7.793			-1.948
161804.000			-7.792			-1.948
161904.000			-7.792			-1.948
162004.000			-7.791			-1.948
162105.000			-7.792			-1.948
162204.000			-7.791			-1.948
162304.000			-7.791			-1.948
162405.000			-7.790			-1.948
162503.000			-7.791			-1.948
162604.000			-7.791			-1.948
162704.000			-7.791			-1.948
162804.000			-7.791			-1.948
162904.000			-7.790			-1.947
163005.000			-7.790			-1.948
163104.000			-7.790			-1.948
163204.000			-7.790			-1.948
163305.000			-7.791			-1.948
163403.000			-7.790			-1.947
163504.000			-7.790			-1.947
163604.000			-7.789			-1.947
163704.000			-7.789			-1.947
163804.000			-7.788			-1.947
163905.000			-7.788			-1.947
164004.000			-7.788			-1.947
164104.000			-7.789			-1.947
164205.000			-7.788			-1.947
164304.000			-7.788			-1.947
164404.000			-7.789			-1.947
164503.000			-7.788			-1.947
164604.000			-7.788			-1.947
164703.000			-7.787			-1.947
164804.000			-7.787			-1.947
164904.000			-7.787			-1.947
165005.000			-7.787			-1.947
165104.000			-7.787			-1.947
165204.000			-7.787			-1.947
165305.000			-7.787			-1.947
165403.000			-7.787			-1.947
165504.000			-7.787			-1.947
165604.000			-7.786			-1.946
165704.000			-7.785			-1.946
165804.000			-7.785			-1.946
165905.000			-7.786			-1.947
166004.000			-7.786			-1.946
166104.000			-7.785			-1.946
166205.000			-7.785			-1.946
166304.000			-7.785			-1.946
166404.000			-7.785			-1.946
166504.000			-7.786			-1.947
166604.000			-7.785			-1.946
166703.000			-7.784			-1.946
166805.000			-7.784			-1.946
166904.000			-7.785			-1.946
167004.000			-7.784			-1.946
167105.000			-7.784			-1.946
167204.000			-7.784			-1.946
167304.000			-7.784			-1.946
167404.000			-7.783			-1.946
167504.000			-7.783			-1.946
167603.000			-7.783			-1.946
167705.000			-7.783			-1.946
167804.000			-7.783			-1.946
167905.000			-7.782			-1.945
168004.000			-7.782			-1.946
168104.000			-7.783			-1.946
168205.000			-7.782			-1.946
168304.000			-7.782			-1.946
168404.000			-7.782			-1.946
168504.000			-7.782			-1.945
168604.000			-7.782			-1.945
168704.000			-7.783			-1.946
168805.000			-7.783			-1.946
168904.000			-7.783			-1.946
169004.000			-7.783			-1.946
169105.000			-7.782			-1.945
169204.000			-7.781			-1.945
169304.000			-7.781			-1.945
169404.000			-7.781			-1.945
169504.000			-7.781			-1.945
169603.000			-7.781			-1.945
169705.000			-7.781			-1.945
169804.000			-7.781			-1.945
169904.000			-7.780			-1.945
170005.000			-7.779			-1.945
170104.000			-7.780			-1.945
170204.000			-7.780			-1.945
170304.000			-7.780			-1.945
170404.000			-7.779			-1.945
170503.000			-7.779			-1.945
170605.000			-7.780			-1.945
170704.000			-7.780			-1.945
170804.000			-7.779			-1.945
170905.000			-7.780			-1.945
171004.000			-7.780			-1.945
171105.000			-7.780			-1.945
171204.000			-7.780			-1.945
171304.000			-7.778			-1.945
171404.000			-7.778			-1.944
171504.000			-7.777			-1.944
171604.000			-7.778			-1.944
171705.000			-7.778			-1.945
171804.000			-7.779			-1.945
171904.000			-7.777			-1.944
172005.000			-7.776			-1.944
172104.000			-7.777			-1.944
172204.000			-7.777			-1.944
172304.000			-7.777			-1.944
172404.000			-7.776			-1.944
172504.000			-7.776			-1.944
172605.000			-7.776			-1.944
172704.000			-7.776			-1.944
172804.000			-7.776			-1.944
172905.000			-7.775			-1.944
173004.000			-7.775			-1.944
173104.000			-7.776			-1.944
173204.000			-7.776			-1.944
173304.000			-7.776			-1.944
173403.000			-7.775			-1.944
173505.000			-7.774			-1.943
173604.000			-7.776			-1.944
173704.000			-7.774			-1.943
173805.000			-7.774			-1.943
173904.000			-7.775			-1.944
174004.000			-7.775			-1.944
174104.000			-7.775			-1.944
174204.000			-7.775			-1.944
174303.000			-7.774			-1.944
174404.000			-7.774			-1.944
174504.000			-7.774			-1.943
174605.000			-7.773			-1.943
174704.000			-7.775			-1.944
174804.000			-7.774			-1.943
174905.000			-7.773			-1.943
175004.000			-7.773			-1.943
175104.000			-7.773			-1.943
175204.000			-7.773			-1.943
175304.000			-7.773			-1.943
175403.000			-7.773			-1.943
175505.000			-7.773			-1.943
175604.000			-7.773			-1.943
175704.000			-7.773			-1.943
175805.000			-7.771			-1.943
175904.000			-7.771			-1.943
176004.000			-7.772			-1.943
176104.000			-7.772			-1.943
176204.000			-7.772			-1.943
176303.000			-7.771			-1.943
176405.000			-7.770			-1.943
176504.000			-7.771			-1.943
176604.000			-7.771			-1.943
176705.000			-7.771			-1.943
176804.000			-7.772			-1.943
176904.000			-7.771			-1.943
177004.000			-7.771			-1.943
177104.000			-7.770			-1.943
177203.000			-7.770			-1.942
177305.000			-7.770			-1.942
177404.000			-7.770			-1.943
177505.000			-7.770			-1.943
177604.000			-7.770			-1.942
177704.000			-7.769			-1.942
177805.000			-7.770			-1.942
177904.000			-7.770			-1.942
178004.000			-7.768			-1.942
178104.000			-7.768			-1.942
178204.000			-7.768			-1.942
178303.000			-7.769			-1.942
178405.000			-7.769			-1.942
178504.000			-7.769			-1.942
178604.000			-7.769			-1.942
178705.000			-7.768			-1.942
178804.000			-7.768			-1.942
178904.000			-7.769			-1.942
179005.000			-7.769			-1.942
179104.000			-7.768			-1.942
179203.000			-7.767			-1.942
179305.000			-7.768			-1.942
179404.000			-7.766			-1.941
179504.000			-7.767			-1.942
179605.000			-7.768			-1.942
179704.000			-7.767			-1.942
179804.000			-7.767			-1.942
179905.000			-7.768			-1.942
180004.000			-7.767			-1.942
180103.000			-7.766			-1.941
180205.000			-7.765			-1.941
180303.000			-7.765			-1.941
180404.000			-7.765			-1.941
180505.000			-7.766			-1.941
180604.000			-7.767			-1.942
180705.000			-7.766			-1.942
180804.000			-7.765			-1.941
180904.000			-7.765			-1.941
181005.000			-7.766			-1.941
181104.000			-7.766			-1.942
181203.000			-7.764			-1.941
181305.000			-7.764			-1.941
181404.000			-7.765			-1.941
181504.000			-7.764			-1.941
181605.000			-7.764			-1.941
181704.000			-7.764			-1.941
181804.000			-7.764			-1.941
181905.000			-7.764			-1.941
182004.000			-7.764			-1.941
182103.000			-7.764			-1.941
182205.000			-7.764			-1.941
182304.000			-7.764			-1.941
182404.000			-7.763			-1.941
182505.000			-7.763			-1.941
182604.000			-7.763			-1.941
182704.000			-7.763			-1.941
182805.000			-7.763			-1.941
182904.000			-7.763			-1.941
183003.000			-7.762			-1.940
183105.000			-7.762			-1.940
183204.000			-7.762			-1.940
183304.000			-7.761			-1.940
183405.000			-7.762			-1.940
183504.000			-7.762			-1.941
183604.000			-7.762			-1.941
183704.000			-7.763			-1.941
183804.000			-7.762			-1.941
183903.000			-7.761			-1.940
184004.000			-7.761			-1.940
184103.000			-7.761			-1.940
184205.000			-7.762			-1.940
184304.000			-7.761			-1.940
184404.000			-7.760			-1.940
184505.000			-7.760			-1.940
184604.000			-7.760			-1.940
184704.000			-7.760			-1.940
184804.000			-7.760			-1.940
184904.000			-7.759			-1.940
185003.000			-7.759			-1.940
185105.000			-7.760			-1.940
185204.000			-7.760			-1.940
185304.000			-7.759			-1.940
185405.000			-7.760			-1.940
185504.000			-7.760			-1.940
185604.000			-7.759			-1.940
185704.000			-7.759			-1.940
185804.000			-7.759			-1.940
185903.000			-7.758			-1.940
186005.000			-7.758			-1.940
186104.000			-7.758			-1.939
186204.000			-7.759			-1.940
186305.000			-7.758			-1.940
186404.000			-7.758			-1.939
186504.000			-7.759			-1.940
186605.000			-7.758			-1.940
186704.000			-7.758			-1.940
186803.000			-7.757			-1.939
186905.000			-7.758			-1.940
187004.000			-7.757			-1.939
187105.000			-7.757			-1.939
187204.000			-7.758			-1.939
187304.000			-7.757			-1.939
187405.000			-7.758			-1.939
187504.000			-7.757			-1.939
187604.000			-7.757			-1.939
187704.000			-7.757			-1.939
187804.000			-7.758			-1.939
187903.000			-7.757			-1.939
188005.000			-7.756			-1.939
188104.000			-7.757			-1.939
188204.000			-7.756			-1.939
188305.000			-7.756			-1.939
188404.000			-7.756			-1.939
188504.000			-7.755			-1.939
188605.000			-7.755			-1.939
188704.000			-7.755			-1.939
188803.000			-7.756			-1.939
188905.000			-7.755			-1.939
189004.000			-7.754			-1.939
189104.000			-7.754			-1.939
189205.000			-7.754			-1.939
189304.000			-7.754			-1.938
189404.000			-7.754			-1.939
189505.000			-7.754			-1.939
189604.000			-7.755			-1.939
189703.000			-7.754			-1.938
189805.000			-7.754			-1.938
189903.000			-7.754			-1.938
190004.000			-7.754			-1.938
190105.000			-7.753			-1.938
190204.000			-7.753			-1.938
190305.000			-7.754			-1.939
190404.000			-7.754			-1.938
190504.000			-7.753			-1.938
190605.000			-7.752			-1.938
190704.000			-7.752			-1.938
190803.000			-7.753			-1.938
190905.000			-7.752			-1.938
191004.000			-7.752			-1.938
191104.000			-7.752			-1.938
191205.000			-7.752			-1.938
191304.000			-7.753			-1.938
191404.000			-7.753			-1.938
191504.000			-7.753			-1.938
191604.000			-7.752			-1.938
191703.000			-7.751			-1.938
191805.000			-7.751			-1.938
191904.000			-7.751			-1.938
192004.000			-7.751			-1.938
192105.000			-7.750			-1.938
192204.000			-7.750			-1.938
192304.000			-7.751			-1.938
192404.000			-7.750			-1.938
192504.000			-7.750			-1.938
192603.000			-7.750			-1.938
192705.000			-7.750			-1.938
192804.000			-7.750			-1.938
192904.000			-7.751			-1.938
193005.000			-7.750			-1.937
193104.000			-7.749			-1.937
193204.000			-7.750			-1.937
193303.000			-7.750			-1.937
193404.000			-7.749			-1.937
193503.000			-7.750			-1.937
193604.000			-7.750			-1.937
193704.000			-7.749			-1.937
193805.000			-7.749			-1.937
193904.000			-7.749			-1.937
194004.000			-7.749			-1.937
194105.000			-7.748			-1.937
194204.000			-7.749			-1.937
194304.000			-7.749			-1.937
194404.000			-7.748			-1.937
194504.000			-7.749			-1.937
194604.000			-7.749			-1.937
194705.000			-7.748			-1.937
194804.000			-7.748			-1.937
194904.000			-7.748			-1.937
195005.000			-7.747			-1.937
195104.000			-7.746			-1.937
195204.000			-7.747			-1.937
195304.000			-7.748			-1.937
195404.000			-7.748			-1.937
195503.000			-7.747			-1.937
195605.000			-7.746			-1.937
195704.000			-7.745			-1.936
195804.000			-7.745			-1.936
195905.000			-7.746			-1.937
196004.000			-7.746			-1.937
196104.000			-7.745			-1.936
196204.000			-7.745			-1.936
196304.000			-7.745			-1.936
196403.000			-7.745			-1.936
196505.000			-7.746			-1.937
196604.000			-7.746			-1.937
196705.000			-7.746			-1.936
196804.000			-7.745			-1.936
196904.000			-7.744			-1.936
197005.000			-7.745			-1.936
197104.000			-7.744			-1.936
197204.000			-7.744			-1.936
197304.000			-7.744			-1.936
197404.000			-7.744			-1.936
197504.000			-7.745			-1.936
197605.000			-7.745			-1.936
197704.000			-7.744			-1.936
197804.000			-7.743			-1.936
197905.000			-7.744			-1.936
198004.000			-7.743			-1.936
198104.000			-7.744			-1.936
198204.000			-7.744			-1.936
198304.000			-7.743			-1.936
198404.000			-7.742			-1.935
198505.000			-7.742			-1.935
198604.000			-7.743			-1.936
198704.000			-7.744			-1.936
198805.000			-7.743			-1.936
198904.000			-7.742			-1.936
199004.000			-7.742			-1.936
199104.000			-7.742			-1.936
199204.000			-7.743			-1.936
199303.000			-7.744			-1.936
199405.000			-7.744			-1.936
199504.000			-7.744			-1.936
199604.000			-7.743			-1.936
199705.000			-7.741			-1.935
199804.000			-7.741			-1.935
199905.000			-7.742			-1.935
200004.000			-7.741			-1.935
200104.000			-7.741			-1.935
200204.000			-7.741			-1.935
200304.000			-7.741			-1.935
200404.000			-7.741			-1.935
200505.000			-7.741			-1.935
200604.000			-7.740			-1.935
200704.000			-7.740			-1.935
200805.000			-7.741			-1.935
200903.000			-7.741			-1.935
201004.000			-7.740			-1.935
201104.000			-7.740			-1.935
201204.000			-7.740			-1.935
201304.000			-7.740			-1.935
201405.000			-7.739			-1.935
201504.000			-7.738			-1.935
201604.000			-7.738			-1.935
201705.000			-7.739			-1.935
201803.000			-7.739			-1.935
201904.000			-7.740			-1.935
202005.000			-7.739			-1.935
202104.000			-7.739			-1.935
202204.000			-7.739			-1.935
202305.000			-7.739			-1.935
202404.000			-7.740			-1.935
202504.000			-7.740			-1.935
202605.000			-7.738			-1.934
202703.000			-7.737			-1.934
202804.000			-7.738			-1.935
202905.000			-7.738			-1.935
203004.000			-7.738			-1.935
203105.000			-7.738			-1.935
203204.000			-7.738			-1.935
203304.000			-7.737			-1.934
203405.000			-7.737			-1.934
203504.000			-7.738			-1.934
203603.000			-7.738			-1.935
203705.000			-7.737			-1.934
203804.000			-7.737			-1.934
203904.000			-7.737			-1.934
204005.000			-7.738			-1.934
204104.000			-7.737			-1.934
204204.000			-7.737			-1.934
204305.000			-7.736			-1.934
204404.000			-7.737			-1.934
204503.000			-7.737			-1.934
204605.000			-7.736			-1.934
204704.000			-7.736			-1.934
204804.000			-7.735			-1.934
204905.000			-7.735			-1.934
205004.000			-7.735			-1.934
205104.000			-7.736			-1.934
205205.000			-7.736			-1.934
205304.000			-7.736			-1.934
205403.000			-7.737			-1.934
205505.000			-7.735			-1.934
205604.000			-7.735			-1.934
205704.000			-7.735			-1.934
205805.000			-7.735			-1.934
205904.000			-7.734			-1.934
206004.000			-7.734			-1.933
206104.000			-7.734			-1.934
206204.000			-7.734			-1.933
206303.000			-7.734			-1.933
206404.000			-7.734			-1.934
206504.000			-7.734			-1.933
206605.000			-7.733			-1.933
206704.000			-7.733			-1.933
206804.000			-7.733			-1.933
206905.000			-7.733			-1.933
207004.000			-7.732			-1.933
207104.000			-7.732			-1.933
207204.000			-7.732			-1.933
207304.000			-7.732			-1.933
207404.000			-7.732			-1.933
207505.000			-7.732			-1.933
207604.000			-7.733			-1.933
207704.000			-7.732			-1.933
207805.000			-7.732			-1.933
207903.000			-7.732			-1.933
208004.000			-7.732			-1.933
208104.000			-7.732			-1.933
208204.000			-7.732			-1.933
208304.000			-7.732			-1.933
208405.000			-7.732			-1.933
208504.000			-7.731			-1.933
208604.000			-7.731			-1.933
208705.000			-7.732			-1.933
208803.000			-7.732			-1.933
208904.000			-7.732			-1.933
209004.000			-7.731			-1.933
209104.000			-7.731			-1.933
209204.000			-7.730			-1.932
209304.000			-7.730			-1.932
209404.000			-7.731			-1.933
209505.000			-7.731			-1.933
209604.000			-7.731			-1.933
209703.000			-7.730			-1.933
209805.000			-7.729			-1.932
209904.000			-7.730			-1.932
210004.000			-7.729			-1.932
210105.000			-7.729			-1.932
210204.000			-7.729			-1.932
210304.000			-7.729			-1.932
210405.000			-7.729			-1.932
210504.000			-7.728			-1.932
210603.000			-7.728			-1.932
210705.000			-7.728			-1.932
210804.000			-7.728			-1.932
210904.000			-7.728			-1.932
211005.000			-7.728			-1.932
211104.000			-7.728			-1.932
211204.000			-7.728			-1.932
211305.000			-7.728			-1.932
211404.000			-7.727			-1.932
211503.000			-7.727			-1.932
211605.000			-7.728			-1.932
211704.000			-7.728			-1.932
211804.000			-7.728			-1.932
211905.000			-7.728			-1.932
212004.000			-7.727			-1.932
212104.000			-7.727			-1.932
212204.000			-7.726			-1.932
212304.000			-7.726			-1.931
212403.000			-7.727			-1.932
212505.000			-7.726			-1.932
212604.000			-7.726			-1.931
212705.000			-7.727			-1.932
212804.000			-7.727			-1.932
212904.000			-7.726			-1.932
213005.000			-7.726			-1.931
213103.000			-7.726			-1.932
213204.000			-7.726			-1.932
213305.000			-7.726			-1.932
213404.000			-7.726			-1.931
213504.000			-7.726			-1.932
213605.000			-7.727			-1.932
213704.000			-7.726			-1.931
213804.000			-7.725			-1.931
213905.000			-7.725			-1.931
214003.000			-7.726			-1.931
214104.000			-7.726			-1.932
214205.000			-7.726			-1.931
214304.000			-7.725			-1.931
214404.000			-7.725			-1.931
214505.000			-7.725			-1.931
214604.000			-7.725			-1.931
214704.000			-7.724			-1.931
214805.000			-7.724			-1.931
214903.000			-7.723			-1.931
215004.000			-7.724			-1.931
215105.000			-7.724			-1.931
215204.000			-7.724			-1.931
215304.000			-7.724			-1.931
215405.000			-7.723			-1.931
215504.000			-7.722			-1.931
215603.000			-7.723			-1.931
215705.000			-7.723			-1.931
215803.000			-7.722			-1.931
215905.000			-7.723			-1.931
216004.000			-7.723			-1.931
216104.000			-7.724			-1.931
216205.000			-7.724			-1.931
216304.000			-7.723			-1.931
216404.000			-7.722			-1.931
216504.000			-7.723			-1.931
216604.000			-7.723			-1.931
216703.000			-7.722			-1.930
216805.000			-7.722			-1.930
216904.000			-7.721			-1.930
217004.000			-7.721			-1.930
217105.000			-7.721			-1.930
217204.000			-7.722			-1.930
217304.000			-7.721			-1.930
217404.000			-7.721			-1.930
217504.000			-7.721			-1.930
217604.000			-7.722			-1.930
217705.000			-7.722			-1.930
217804.000			-7.720			-1.930
217904.000			-7.720			-1.930
218005.000			-7.722			-1.930
218104.000			-7.722			-1.931
218204.000			-7.721			-1.930
218304.000			-7.721			-1.930
218404.000			-7.720			-1.930
218504.000			-7.720			-1.930
218605.000			-7.722			-1.931
218704.000			-7.721			-1.930
218804.000			-7.720			-1.930
218905.000			-7.720			-1.930
219003.000			-7.720			-1.930
219105.000			-7.720			-1.930
219203.000			-7.720			-1.930
219304.000			-7.720			-1.930
219405.000			-7.719			-1.930
219504.000			-7.719			-1.930
219604.000			-7.719			-1.930
219705.000			-7.720			-1.930
219804.000			-7.719			-1.930
219904.000			-7.719			-1.930
220005.000			-7.718			-1.930
220103.000			-7.718			-1.930
220204.000			-7.718			-1.930
220305.000			-7.719			-1.930
220404.000			-7.718			-1.930
220504.000			-7.718			-1.929
220605.000			-7.718			-1.929
220704.000			-7.718			-1.930
220803.000			-7.718			-1.930
220905.000			-7.718			-1.929
221003.000			-7.718			-1.929
221104.000			-7.718			-1.929
221205.000			-7.718			-1.929
221304.000			-7.718			-1.929
221404.000			-7.717			-1.929
221505.000			-7.717			-1.929
221604.000			-7.717			-1.929
221703.000			-7.717			-1.929
221805.000			-7.716			-1.929
221904.000			-7.717			-1.929
222004.000			-7.717			-1.929
222105.000			-7.717			-1.929
222204.000			-7.717			-1.929
222305.000			-7.716			-1.929
222404.000			-7.717			-1.929
222504.000			-7.717			-1.929
222604.000			-7.716			-1.929
222704.000			-7.716			-1.929
222803.000			-7.716			-1.929
222905.000			-7.716			-1.929
223004.000			-7.715			-1.929
223104.000			-7.716			-1.929
223205.000			-7.716			-1.929
223304.000			-7.716			-1.929
223404.000			-7.715			-1.929
223504.000			-7.715			-1.929
223604.000			-7.714			-1.929
223704.000			-7.715			-1.929
223805.000			-7.715			-1.929
223904.000			-7.715			-1.929
224004.000			-7.715			-1.929
224105.000			-7.715			-1.929
224204.000			-7.714			-1.929
224304.000			-7.714			-1.929
224404.000			-7.714			-1.928
224504.000			-7.714			-1.929
224604.000			-7.714			-1.928
224705.000			-7.714			-1.928
224804.000			-7.713			-1.928
224904.000			-7.713			-1.928
225005.000			-7.714			-1.928
225103.000			-7.715			-1.929
225204.000			-7.714			-1.929
225303.000			-7.714			-1.929
225404.000			-7.714			-1.928
225505.000			-7.713			-1.928
225604.000			-7.713			-1.928
225704.000			-7.714			-1.928
225805.000			-7.713			-1.928
225904.000			-7.714			-1.928
226003.000			-7.713			-1.928
226105.000			-7.712			-1.928
226204.000			-7.712			-1.928
226304.000			-7.712			-1.928
226405.000			-7.712			-1.928
226504.000			-7.714			-1.928
226604.000			-7.713			-1.928
226705.000			-7.713			-1.928
226804.000			-7.712			-1.928
226903.000			-7.712			-1.928
227005.000			-7.710			-1.928
227104.000			-7.711			-1.928
227204.000			-7.711			-1.928
227305.000			-7.711			-1.928
227404.000			-7.712			-1.928
227504.000			-7.712			-1.928
227605.000			-7.712			-1.928
227704.000			-7.711			-1.928
227803.000			-7.712			-1.928
227905.000			-7.710			-1.928
228004.000			-7.710			-1.928
228104.000			-7.710			-1.927
228205.000			-7.710			-1.927
228304.000			-7.711			-1.928
228404.000			-7.710			-1.928
228504.000			-7.710			-1.927
228604.000			-7.710			-1.927
228703.000			-7.710			-1.927
228804.000			-7.710			-1.927
228904.000			-7.709			-1.927
229005.000			-7.709			-1.927
229104.000			-7.709			-1.927
229204.000			-7.709			-1.927
229305.000			-7.709			-1.927
229404.000			-7.709			-1.927
229504.000			-7.709			-1.927
229604.000			-7.710			-1.927
229704.000			-7.709			-1.927
229804.000			-7.709			-1.927
229905.000			-7.708			-1.927
230004.000			-7.708			-1.927
230104.000			-7.709			-1.927
230205.000			-7.708			-1.927
230304.000			-7.709			-1.927
230404.000			-7.708			-1.927
230504.000			-7.708			-1.927
230604.000			-7.708			-1.927
230704.000			-7.707			-1.927
230805.000			-7.707			-1.927
230904.000			-7.708			-1.927
231004.000			-7.707			-1.927
231105.000			-7.707			-1.927
231204.000			-7.707			-1.927
231304.000			-7.706			-1.927
231404.000			-7.707			-1.927
231504.000			-7.707			-1.927
231604.000			-7.706			-1.927
231704.000			-7.706			-1.927
231804.000			-7.706			-1.927
231905.000			-7.706			-1.927
232004.000			-7.707			-1.927
232103.000			-7.706			-1.927
232205.000			-7.705			-1.926
232304.000			-7.706			-1.926
232404.000			-7.705			-1.926
232505.000			-7.706			-1.926
232604.000			-7.705			-1.926
232704.000			-7.705			-1.926
232805.000			-7.705			-1.926
232904.000			-7.704			-1.926
233003.000			-7.704			-1.926
233105.000			-7.705			-1.926
233204.000			-7.705			-1.926
233304.000			-7.705			-1.926
233405.000			-7.705			-1.926
233504.000			-7.705			-1.926
233604.000			-7.706			-1.926
233705.000			-7.705			-1.926
233804.000			-7.705			-1.926
233903.000			-7.705			-1.926
234005.000			-7.704			-1.926
234104.000			-7.704			-1.926
234204.000			-7.704			-1.926
234305.000			-7.704			-1.926
234404.000			-7.704			-1.926
234504.000			-7.704			-1.926
234604.000			-7.703			-1.926
234704.000			-7.703			-1.926
234803.000			-7.703			-1.926
234905.000			-7.703			-1.926
235004.000			-7.703			-1.926
235105.000			-7.705			-1.926
235204.000			-7.703			-1.926
235304.000			-7.703			-1.926
235405.000			-7.704			-1.926
235503.000			-7.703			-1.926
235604.000			-7.702			-1.926
235705.000			-7.702			-1.925
235804.000			-7.702			-1.926
235904.000			-7.702			-1.926
236005.000			-7.702			-1.926
236104.000			-7.702			-1.925
236204.000			-7.703			-1.926
236305.000			-7.702			-1.926
236403.000			-7.702			-1.925
236504.000			-7.702			-1.926
236605.000			-7.702			-1.926
236704.000			-7.702			-1.925
236804.000			-7.701			-1.925
236905.000			-7.700			-1.925
237004.000			-7.700			-1.925
237103.000			-7.701			-1.925
237205.000			-7.701			-1.925
237303.000			-7.701			-1.925
237404.000			-7.700			-1.925
237505.000			-7.700			-1.925
237604.000			-7.701			-1.925
237704.000			-7.701			-1.925
237805.000			-7.701			-1.925
237904.000			-7.700			-1.925
238003.000			-7.699			-1.925
238105.000			-7.700			-1.925
238204.000			-7.700			-1.925
238305.000			-7.701			-1.925
238404.000			-7.700			-1.925
238504.000			-7.700			-1.925
238605.000			-7.700			-1.925
238704.000			-7.700			-1.925
238804.000			-7.700			-1.925
238904.000			-7.700			-1.925
239004.000			-7.700			-1.925
239103.000			-7.700			-1.925
239205.000			-7.699			-1.925
239304.000			-7.698			-1.925
239404.000			-7.699			-1.925
239505.000			-7.699			-1.925
239604.000			-7.698			-1.925
239704.000			-7.698			-1.925
239805.000			-7.697			-1.924
239904.000			-7.698			-1.924
240003.000			-7.699			-1.925
240105.000			-7.698			-1.925
240204.000			-7.697			-1.924
240304.000			-7.698			-1.925
240405.000			-7.698			-1.924
240504.000			-7.697			-1.924
240604.000			-7.698			-1.925
240705.000			-7.698			-1.924
240804.000			-7.696			-1.924
240903.000			-7.696			-1.924
241005.000			-7.697			-1.924
241104.000			-7.697			-1.924
241204.000			-7.697			-1.924
241305.000			-7.697			-1.924
241404.000			-7.697			-1.924
241505.000			-7.696			-1.924
241604.000			-7.696			-1.924
241704.000			-7.696			-1.924
241804.000			-7.697			-1.924
241904.000			-7.697			-1.924
242003.000			-7.696			-1.924
242105.000			-7.696			-1.924
242204.000			-7.696			-1.924
242304.000			-7.696			-1.924
242405.000			-7.695			-1.924
242504.000			-7.695			-1.924
242604.000			-7.696			-1.924
242704.000			-7.696			-1.924
242804.000			-7.696			-1.924
242903.000			-7.696			-1.924
243005.000			-7.696			-1.924
243104.000			-7.695			-1.924
243204.000			-7.694			-1.923
243305.000			-7.694			-1.924
243404.000			-7.695			-1.924
243504.000			-7.695			-1.924
243604.000			-7.694			-1.923
243704.000			-7.693			-1.923
243803.000			-7.693			-1.923
243905.000			-7.695			-1.924
244004.000			-7.696			-1.924
244104.000			-7.695			-1.924
244205.000			-7.694			-1.923
244304.000			-7.694			-1.924
244404.000			-7.694			-1.924
244504.000			-7.693			-1.923
244604.000			-7.693			-1.923
244703.000			-7.694			-1.924
244804.000			-7.694			-1.923
244904.000			-7.694			-1.923
245005.000			-7.692			-1.923
245104.000			-7.692			-1.923
245204.000			-7.692			-1.923
245305.000			-7.693			-1.923
245404.000			-7.693			-1.923
245504.000			-7.693			-1.923
245604.000			-7.691			-1.923
245704.000			-7.692			-1.923
245804.000			-7.692			-1.923
245905.000			-7.693			-1.923
246004.000			-7.693			-1.923
246104.000			-7.692			-1.923
246205.000			-7.692			-1.923
246304.000			-7.692			-1.923
246404.000			-7.691			-1.923
246504.000			-7.692			-1.923
246604.000			-7.692			-1.923
246704.000			-7.691			-1.923
246805.000			-7.691			-1.923
246904.000			-7.691			-1.923
247004.000			-7.691			-1.923
247105.000			-7.691			-1.923
247204.000			-7.692			-1.923
247304.000			-7.692			-1.923
247404.000			-7.691			-1.923
247504.000			-7.691			-1.923
247603.000			-7.691			-1.923
247705.000			-7.690			-1.922
247804.000			-7.691			-1.923
247905.000			-7.690			-1.922
248004.000			-7.689			-1.922
248104.000			-7.689			-1.922
248205.000			-7.690			-1.922
248304.000			-7.690			-1.922
248404.000			-7.690			-1.922
248504.000			-7.690			-1.923
248604.000			-7.690			-1.922
248704.000			-7.690			-1.923
248805.000			-7.689			-1.922
248904.000			-7.689			-1.922
249004.000			-7.689			-1.922
249105.000			-7.689			-1.922
249204.000			-7.689			-1.922
249304.000			-7.689			-1.922
249404.000			-7.689			-1.922
249504.000			-7.689			-1.922
249603.000			-7.689			-1.922
249705.000			-7.688			-1.922
249804.000			-7.688			-1.922
249904.000			-7.688			-1.922
250005.000			-7.689			-1.922
250104.000			-7.690			-1.922
250204.000			-7.689			-1.922
250304.000			-7.688			-1.922
250404.000			-7.688			-1.922
250503.000			-7.689			-1.922
250605.000			-7.688			-1.922
250704.000			-7.687			-1.922
250804.000			-7.687			-1.922
250905.000			-7.688			-1.922
251004.000			-7.688			-1.922
251105.000			-7.689			-1.922
251204.000			-7.687			-1.922
251304.000			-7.687			-1.922
251404.000			-7.686			-1.922
251504.000			-7.686			-1.922
251604.000			-7.686			-1.922
251705.000			-7.687			-1.922
251804.000			-7.687			-1.922
251904.000			-7.686			-1.922
252005.000			-7.686			-1.921
252104.000			-7.686			-1.922
252204.000			-7.686			-1.922
252304.000			-7.686			-1.922
252404.000			-7.686			-1.922
252504.000			-7.686			-1.921
252605.000			-7.685			-1.921
252704.000			-7.686			-1.921
252804.000			-7.686			-1.921
252905.000			-7.686			-1.921
253004.000			-7.686			-1.921
253104.000			-7.686			-1.921
253204.000			-7.686			-1.922
253304.000			-7.685			-1.921
253404.000			-7.685			-1.921
253505.000			-7.684			-1.921
253604.000			-7.684			-1.921
253704.000			-7.684			-1.921
253805.000			-7.685			-1.921
253904.000			-7.685			-1.921
254004.000			-7.685			-1.921
254103.000			-7.684			-1.921
254204.000			-7.684			-1.921
254305.000			-7.684			-1.921
254404.000			-7.684			-1.921
254504.000			-7.684			-1.921
254605.000			-7.684			-1.921
254704.000			-7.683			-1.921
254804.000			-7.684			-1.921
254905.000			-7.684			-1.921
255003.000			-7.684			-1.921
255104.000			-7.683			-1.921
255205.000			-7.684			-1.921
255304.000			-7.684			-1.921
255404.000			-7.684			-1.921
255505.000			-7.684			-1.921
255604.000			-7.683			-1.921
255704.000			-7.683			-1.921
255805.000			-7.683			-1.921
255903.000			-7.683			-1.921
256004.000			-7.683			-1.921
256104.000			-7.683			-1.921
256204.000			-7.682			-1.921
256304.000			-7.682			-1.921
256405.000			-7.682			-1.921
256504.000			-7.682			-1.921
256604.000			-7.682			-1.921
256705.000			-7.682			-1.920
256804.000			-7.682			-1.921
256904.000			-7.681			-1.920
257004.000			-7.681			-1.920
257104.000			-7.681			-1.920
257204.000			-7.681			-1.920
257304.000			-7.682			-1.920
257404.000			-7.681			-1.920
257505.000			-7.681			-1.920
257604.000			-7.680			-1.920
257703.000			-7.681			-1.920
257805.000			-7.681			-1.920
257903.000			-7.680			-1.920
258004.000			-7.681			-1.920
258105.000			-7.682			-1.920
258204.000			-7.681			-1.920
258304.000			-7.681			-1.920
258405.000			-7.681			-1.920
258504.000			-7.680			-1.920
258604.000			-7.680			-1.920
258705.000			-7.680			-1.920
258803.000			-7.681			-1.920
258904.000			-7.680			-1.920
259005.000			-7.680			-1.920
259104.000			-7.680			-1.920
259204.000			-7.680			-1.920
259305.000			-7.679			-1.920
259404.000			-7.679			-1.920
259504.000			-7.680			-1.920
259605.000			-7.679			-1.920
259703.000			-7.680			-1.920
259804.000			-7.680			-1.920
259905.000			-7.680			-1.920
260004.000			-7.680			-1.920
260104.000			-7.680			-1.920
260205.000			-7.679			-1.920
260304.000			-7.679			-1.920
260404.000			-7.678			-1.920
260505.000			-7.679			-1.920
260603.000			-7.679			-1.920
260705.000			-7.678			-1.920
260803.000			-7.678			-1.920
260904.000			-7.678			-1.920
261005.000			-7.679			-1.920
261104.000			-7.679			-1.920
261204.000			-7.678			-1.919
261305.000			-7.677			-1.919
261404.000			-7.678			-1.920
261503.000			-7.678			-1.920
261605.000			-7.679			-1.920
261703.000			-7.679			-1.920
261804.000			-7.678			-1.920
261905.000			-7.678			-1.919
262004.000			-7.678			-1.919
262104.000			-7.678			-1.919
262205.000			-7.677			-1.919
262304.000			-7.677			-1.919
262404.000			-7.676			-1.919
262505.000			-7.676			-1.919
262603.000			-7.677			-1.919
262704.000			-7.677			-1.919
262805.000			-7.676			-1.919
262904.000			-7.676			-1.919
263004.000			-7.676			-1.919
263105.000			-7.676			-1.919
263204.000			-7.678			-1.919
263304.000			-7.678			-1.919
263405.000			-7.678			-1.919
263503.000			-7.677			-1.919
263604.000			-7.676			-1.919
263705.000			-7.675			-1.919
263804.000			-7.675			-1.919
263905.000			-7.675			-1.919
264004.000			-7.675			-1.919
264104.000			-7.675			-1.919
264205.000			-7.676			-1.919
264304.000			-7.676			-1.919
264403.000			-7.676			-1.919
264505.000			-7.675			-1.919
264604.000			-7.676			-1.919
264704.000			-7.677			-1.919
264805.000			-7.676			-1.919
264904.000			-7.675			-1.919
265004.000			-7.675			-1.919
265105.000			-7.674			-1.919
265204.000			-7.674			-1.919
265303.000			-7.674			-1.919
265405.000			-7.674			-1.919
265504.000			-7.675			-1.919
265604.000			-7.674			-1.919
265705.000			-7.675			-1.919
265804.000			-7.674			-1.919
265904.000			-7.674			-1.919
266005.000			-7.674			-1.919
266104.000			-7.674			-1.919
266203.000			-7.674			-1.919
266305.000			-7.673			-1.918
266404.000			-7.673			-1.918
266504.000			-7.673			-1.918
266605.000			-7.673			-1.918
266704.000			-7.674			-1.918
266804.000			-7.674			-1.918
266904.000			-7.672			-1.918
267004.000			-7.673			-1.918
267103.000			-7.674			-1.918
267204.000			-7.672			-1.918
267303.000			-7.672			-1.918
267405.000			-7.673			-1.918
267504.000			-7.673			-1.918
267604.000			-7.673			-1.918
267705.000			-7.672			-1.918
267804.000			-7.672			-1.918
267904.000			-7.672			-1.918
268004.000			-7.673			-1.918
268104.000			-7.673			-1.918
268203.000			-7.673			-1.918
268305.000			-7.671			-1.918
268404.000			-7.671			-1.918
268504.000			-7.672			-1.918
268605.000			-7.672			-1.918
268704.000			-7.672			-1.918
268804.000			-7.671			-1.918
268905.000			-7.672			-1.918
269004.000			-7.671			-1.918
269103.000			-7.671			-1.918
269205.000			-7.671			-1.918
269304.000			-7.671			-1.918
269404.000			-7.671			-1.918
269505.000			-7.671			-1.918
269604.000			-7.671			-1.918
269704.000			-7.671			-1.918
269805.000			-7.671			-1.918
269904.000			-7.671			-1.918
270003.000			-7.671			-1.918
270105.000			-7.669			-1.917
270204.000			-7.670			-1.918
270305.000			-7.670			-1.918
270404.000			-7.670			-1.917
270504.000			-7.670			-1.917
270605.000			-7.670			-1.917
270704.000			-7.670			-1.917
270804.000			-7.670			-1.918
270904.000			-7.669			-1.917
271004.000			-7.669			-1.917
271104.000			-7.669			-1.917
271205.000			-7.670			-1.917
271304.000			-7.670			-1.917
271404.000			-7.670			-1.917
271505.000			-7.670			-1.917
271604.000			-7.669			-1.917
271704.000			-7.669			-1.917
271804.000			-7.669			-1.917
271904.000			-7.668			-1.917
272003.000			-7.668			-1.917
272105.000			-7.669			-1.917
272204.000			-7.668			-1.917
272304.000			-7.668			-1.917
272405.000			-7.669			-1.917
272504.000			-7.668			-1.917
272604.000			-7.668			-1.917
272704.000			-7.668			-1.917
272804.000			-7.669			-1.917
272903.000			-7.669			-1.917
273005.000			-7.669			-1.917
273104.000			-7.668			-1.917
273204.000			-7.668			-1.917
273305.000			-7.668			-1.917
273404.000			-7.667			-1.917
273505.000			-7.667			-1.917
273604.000			-7.666			-1.917
273704.000			-7.666			-1.917
273804.000			-7.667			-1.917
273904.000			-7.668			-1.917
274004.000			-7.666			-1.916
274105.000			-7.665			-1.916
274204.000			-7.666			-1.916
274304.000			-7.666			-1.917
274405.000			-7.667			-1.917
274504.000			-7.666			-1.917
274604.000			-7.666			-1.917
274704.000			-7.666			-1.916
274804.000			-7.666			-1.916
274904.000			-7.666			-1.916
275005.000			-7.666			-1.917
275104.000			-7.666			-1.917
275204.000			-7.665			-1.916
275305.000			-7.666			-1.916
275404.000			-7.666			-1.916
275504.000			-7.665			-1.916
275604.000			-7.664			-1.916
275704.000			-7.665			-1.916
275804.000			-7.666			-1.916
275905.000			-7.665			-1.916
276004.000			-7.666			-1.916
276104.000			-7.665			-1.916
276205.000			-7.665			-1.916
276304.000			-7.664			-1.916
276404.000			-7.665			-1.916
276503.000			-7.665			-1.916
276604.000			-7.665			-1.916
276705.000			-7.664			-1.916
276804.000			-7.664			-1.916
276904.000			-7.664			-1.916
277005.000			-7.665			-1.916
277104.000			-7.664			-1.916
277204.000			-7.664			-1.916
277305.000			-7.665			-1.916
277403.000			-7.665			-1.916
277504.000			-7.665			-1.916
277604.000			-7.664			-1.916
277704.000			-7.664			-1.916
277804.000			-7.664			-1.916
277905.000			-7.664			-1.916
278004.000			-7.663			-1.916
278104.000			-7.663			-1.916
278205.000			-7.663			-1.916
278304.000			-7.663			-1.916
278404.000			-7.663			-1.916
278504.000			-7.664			-1.916
278604.000			-7.663			-1.916
278704.000			-7.663			-1.916
278805.000			-7.663			-1.916
278904.000			-7.663			-1.916
279004.000			-7.663			-1.916
279105.000			-7.662			-1.915
279204.000			-7.662			-1.915
279304.000			-7.663			-1.916
279404.000			-7.663			-1.916
279504.000			-7.662			-1.915
279604.000			-7.662			-1.915
279704.000			-7.662			-1.916
279804.000			-7.662			-1.916
279905.000			-7.662			-1.915
280004.000			-7.661			-1.915
280104.000			-7.662			-1.915
280205.000			-7.662			-1.915
280303.000			-7.662			-1.915
280404.000			-7.662			-1.915
280505.000			-7.662			-1.915
280604.000			-7.661			-1.915
280704.000			-7.660			-1.915
280805.000			-7.661			-1.915
280904.000			-7.661			-1.915
281004.000			-7.661			-1.915
281105.000			-7.660			-1.915
281203.000			-7.660			-1.915
281304.000			-7.660			-1.915
281405.000			-7.660			-1.915
281504.000			-7.661			-1.915
281604.000			-7.661			-1.915
281705.000			-7.661			-1.915
281804.000			-7.660			-1.915
281904.000			-7.659			-1.915
282005.000			-7.660			-1.915
282103.000			-7.659			-1.915
282204.000			-7.659			-1.915
282304.000			-7.660			-1.915
282404.000			-7.660			-1.915
282504.000			-7.660			-1.915
282605.000			-7.659			-1.915
282704.000			-7.658			-1.915
282804.000			-7.658			-1.915
282905.000			-7.660			-1.915
283003.000			-7.660			-1.915
283105.000			-7.660			-1.915
283203.000			-7.659			-1.915
283304.000			-7.659			-1.915
283405.000			-7.659			-1.915
283504.000			-7.659			-1.915
283604.000			-7.661			-1.915
283705.000			-7.661			-1.915
283804.000			-7.659			-1.915
283904.000			-7.659			-1.915
284005.000			-7.660			-1.915
284103.000			-7.660			-1.915
284204.000			-7.659			-1.915
284305.000			-7.658			-1.914
284404.000			-7.658			-1.914
284504.000			-7.659			-1.915
284605.000			-7.658			-1.914
284704.000			-7.658			-1.914
284804.000			-7.657			-1.914
284905.000			-7.657			-1.914
285003.000			-7.658			-1.914
285104.000			-7.658			-1.915
285205.000			-7.658			-1.914
285304.000			-7.657			-1.914
285404.000			-7.657			-1.914
285505.000			-7.658			-1.914
285604.000			-7.657			-1.914
285704.000			-7.657			-1.914
285805.000			-7.658			-1.915
285903.000			-7.657			-1.914
286004.000			-7.658			-1.914
286103.000			-7.657			-1.914
286204.000			-7.657			-1.914
286305.000			-7.657			-1.914
286404.000			-7.658			-1.915
286504.000			-7.657			-1.914
286605.000			-7.656			-1.914
286704.000			-7.655			-1.914
286804.000			-7.656			-1.914
286905.000			-7.657			-1.914
287003.000			-7.657			-1.914
287104.000			-7.656			-1.914
287205.000			-7.656			-1.914
287304.000			-7.655			-1.914
287404.000			-7.655			-1.914
287505.000			-7.655			-1.914
287604.000			-7.656			-1.914
287704.000			-7.656			-1.914
287805.000			-7.655			-1.914
287903.000			-7.655			-1.914
288004.000			-7.655			-1.914
288105.000			-7.655			-1.914
288204.000			-7.655			-1.914
288304.000			-7.656			-1.914
288405.000			-7.655			-1.914
288504.000			-7.654			-1.914
288604.000			-7.655			-1.914
288705.000			-7.656			-1.914
288803.000			-7.655			-1.914
288904.000			-7.654			-1.913
289004.000			-7.654			-1.914
289104.000			-7.655			-1.914
289204.000			-7.655			-1.914
289304.000			-7.655			-1.914
289404.000			-7.653			-1.913
289505.000			-7.654			-1.913
289604.000			-7.655			-1.914
289704.000			-7.653			-1.913
289805.000			-7.653			-1.913
289903.000			-7.653			-1.913
290004.000			-7.654			-1.913
290105.000			-7.654			-1.913
290204.000			-7.654			-1.913
290304.000			-7.653			-1.913
290405.000			-7.653			-1.913
290504.000			-7.652			-1.913
290604.000			-7.652			-1.913
290705.000			-7.653			-1.913
290803.000			-7.653			-1.913
290904.000			-7.653			-1.913
291005.000			-7.652			-1.913
291104.000			-7.653			-1.913
291204.000			-7.652			-1.913
291305.000			-7.652			-1.913
291404.000			-7.652			-1.913
291504.000			-7.652			-1.913
291605.000			-7.652			-1.913
291703.000			-7.652			-1.913
291804.000			-7.652			-1.913
291905.000			-7.652			-1.913
292004.000			-7.652			-1.913
292104.000			-7.651			-1.913
292205.000			-7.650			-1.913
292304.000			-7.651			-1.913
292403.000			-7.651			-1.913
292505.000			-7.651			-1.913
292603.000			-7.651			-1.913
292705.000			-7.651			-1.913
292804.000			-7.651			-1.913
292904.000			-7.651			-1.913
293005.000			-7.650			-1.913
293104.000			-7.650			-1.912
293204.000			-7.650			-1.913
293305.000			-7.651			-1.913
293404.000			-7.651			-1.913
293503.000			-7.650			-1.913
293605.000			-7.650			-1.913
293704.000			-7.650			-1.912
293804.000			-7.650			-1.913
293905.000			-7.650			-1.912
294004.000			-7.649			-1.912
294104.000			-7.650			-1.912
294205.000			-7.649			-1.912
294304.000			-7.650			-1.912
294403.000			-7.650			-1.913
294505.000			-7.650			-1.912
294604.000			-7.649			-1.912
294704.000			-7.649			-1.912
294805.000			-7.650			-1.913
294904.000			-7.649			-1.912
295004.000			-7.649			-1.912
295105.000			-7.649			-1.912
295204.000			-7.649			-1.912
295303.000			-7.649			-1.912
295405.000			-7.648			-1.912
295503.000			-7.648			-1.912
295604.000			-7.649			-1.912
295705.000			-7.648			-1.912
295804.000			-7.647			-1.912
295905.000			-7.649			-1.912
296004.000			-7.649			-1.912
296104.000			-7.648			-1.912
296205.000			-7.648			-1.912
296304.000			-7.648			-1.912
296403.000			-7.648			-1.912
296505.000			-7.647			-1.912
296604.000			-7.647			-1.912
296704.000			-7.648			-1.912
296805.000			-7.648			-1.912
296904.000			-7.647			-1.912
297004.000			-7.648			-1.912
297105.000			-7.647			-1.912
297204.000			-7.647			-1.912
297303.000			-7.648			-1.912
297405.000			-7.648			-1.912
297503.000			-7.648			-1.912
297604.000			-7.647			-1.912
297705.000			-7.647			-1.912
297804.000			-7.646			-1.912
297904.000			-7.646			-1.911
298005.000			-7.647			-1.912
298104.000			-7.647			-1.912
298203.000			-7.646			-1.911
298305.000			-7.646			-1.911
298403.000			-7.646			-1.911
298504.000			-7.646			-1.911
298605.000			-7.645			-1.911
298704.000			-7.645			-1.911
298804.000			-7.646			-1.911
298904.000			-7.646			-1.911
299004.000			-7.646			-1.912
299105.000			-7.646			-1.912
299204.000			-7.645			-1.911
299303.000			-7.645			-1.911
299405.000			-7.646			-1.911
299504.000			-7.647			-1.912
299604.000			-7.646			-1.912
299705.000			-7.644			-1.911
299804.000			-7.644			-1.911
299904.000			-7.646			-1.911
