# Acquired on 25/01/2024 12:06:53 
# SPIDER: Creep_-4mm_GRPCNT1454A-3
# CREEP MEASUREMENT

# time [ms]		force [N]		stiffness [N/mm]
0.000			16.661			-4.165
105.000			17.370			-4.343
204.000			17.475			-4.369
304.000			17.321			-4.330
405.000			17.090			-4.273
504.000			17.009			-4.252
604.000			16.940			-4.235
705.000			16.879			-4.220
804.000			16.825			-4.206
904.000			16.778			-4.195
1004.000			16.734			-4.184
1104.000			16.694			-4.174
1204.000			16.623			-4.156
1305.000			16.591			-4.148
1404.000			16.561			-4.140
1504.000			16.534			-4.133
1605.000			16.507			-4.127
1703.000			16.482			-4.121
1804.000			16.459			-4.115
1905.000			16.416			-4.104
2004.000			16.396			-4.099
2104.000			16.376			-4.094
2204.000			16.358			-4.090
2304.000			16.340			-4.085
2404.000			16.322			-4.080
2505.000			16.306			-4.076
2604.000			16.275			-4.069
2705.000			16.261			-4.065
2804.000			16.246			-4.062
2903.000			16.232			-4.058
3005.000			16.220			-4.055
3104.000			16.207			-4.052
3204.000			16.194			-4.048
3305.000			16.170			-4.042
3404.000			16.158			-4.039
3504.000			16.147			-4.037
3605.000			16.135			-4.034
3704.000			16.125			-4.031
3804.000			16.116			-4.029
3905.000			16.105			-4.026
4004.000			16.094			-4.024
4103.000			16.075			-4.019
4205.000			16.066			-4.017
4304.000			16.057			-4.014
4404.000			16.048			-4.012
4505.000			16.039			-4.010
4603.000			16.031			-4.008
4704.000			16.023			-4.006
4805.000			16.008			-4.002
4904.000			15.999			-4.000
5004.000			15.990			-3.998
5105.000			15.982			-3.996
5204.000			15.976			-3.994
5303.000			15.969			-3.992
5405.000			15.961			-3.990
5504.000			15.947			-3.987
5604.000			15.940			-3.985
5705.000			15.933			-3.983
5804.000			15.926			-3.982
5905.000			15.920			-3.980
6003.000			15.914			-3.978
6104.000			15.909			-3.977
6205.000			15.896			-3.974
6304.000			15.890			-3.972
6404.000			15.883			-3.971
6505.000			15.877			-3.969
6604.000			15.872			-3.968
6703.000			15.866			-3.967
6805.000			15.861			-3.965
6904.000			15.856			-3.964
7004.000			15.845			-3.961
7105.000			15.840			-3.960
7203.000			15.834			-3.958
7304.000			15.829			-3.957
7405.000			15.824			-3.956
7504.000			15.819			-3.955
7604.000			15.814			-3.953
7705.000			15.803			-3.951
7804.000			15.798			-3.950
7903.000			15.794			-3.949
8005.000			15.789			-3.947
8104.000			15.785			-3.946
8204.000			15.780			-3.945
8305.000			15.775			-3.944
8404.000			15.768			-3.942
8504.000			15.762			-3.941
8604.000			15.758			-3.939
8704.000			15.754			-3.939
8804.000			15.750			-3.937
8905.000			15.745			-3.936
9004.000			15.741			-3.935
9105.000			15.737			-3.934
9204.000			15.729			-3.932
9303.000			15.724			-3.931
9405.000			15.720			-3.930
9504.000			15.717			-3.929
9604.000			15.713			-3.928
9705.000			15.710			-3.927
9803.000			15.705			-3.926
9904.000			15.697			-3.924
10005.000			15.693			-3.923
10104.000			15.690			-3.922
10204.000			15.687			-3.922
10305.000			15.683			-3.921
10404.000			15.680			-3.920
10503.000			15.676			-3.919
10605.000			15.668			-3.917
10704.000			15.665			-3.916
10804.000			15.662			-3.915
10905.000			15.658			-3.915
11004.000			15.654			-3.913
11104.000			15.651			-3.913
11204.000			15.648			-3.912
11304.000			15.644			-3.911
11404.000			15.639			-3.910
11505.000			15.636			-3.909
11604.000			15.632			-3.908
11704.000			15.629			-3.907
11805.000			15.625			-3.906
11903.000			15.622			-3.906
12004.000			15.619			-3.905
12105.000			15.612			-3.903
12204.000			15.609			-3.902
12305.000			15.607			-3.902
12404.000			15.604			-3.901
12504.000			15.601			-3.900
12604.000			15.598			-3.900
12704.000			15.595			-3.899
12804.000			15.591			-3.898
12905.000			15.587			-3.897
13004.000			15.585			-3.896
13103.000			15.582			-3.895
13205.000			15.579			-3.895
13304.000			15.576			-3.894
13404.000			15.573			-3.893
13505.000			15.569			-3.892
13604.000			15.566			-3.891
13704.000			15.563			-3.891
13804.000			15.560			-3.890
13904.000			15.557			-3.889
14003.000			15.555			-3.889
14105.000			15.551			-3.888
14204.000			15.549			-3.887
14304.000			15.545			-3.886
14405.000			15.541			-3.885
14503.000			15.539			-3.885
14604.000			15.537			-3.884
14705.000			15.534			-3.883
14804.000			15.531			-3.883
14904.000			15.530			-3.882
15005.000			15.525			-3.881
15104.000			15.522			-3.880
15203.000			15.519			-3.880
15305.000			15.517			-3.879
15404.000			15.514			-3.879
15505.000			15.511			-3.878
15604.000			15.510			-3.877
15704.000			15.506			-3.876
15805.000			15.504			-3.876
15903.000			15.502			-3.875
16004.000			15.498			-3.874
16105.000			15.496			-3.874
16204.000			15.494			-3.874
16304.000			15.491			-3.873
16405.000			15.486			-3.872
16504.000			15.484			-3.871
16603.000			15.482			-3.870
16705.000			15.480			-3.870
16804.000			15.478			-3.869
16904.000			15.475			-3.869
17005.000			15.474			-3.868
17104.000			15.472			-3.868
17204.000			15.468			-3.867
17304.000			15.466			-3.866
17404.000			15.463			-3.866
17504.000			15.462			-3.865
17605.000			15.459			-3.865
17704.000			15.457			-3.864
17804.000			15.455			-3.864
17905.000			15.451			-3.863
18003.000			15.449			-3.862
18104.000			15.448			-3.862
18205.000			15.445			-3.861
18304.000			15.443			-3.861
18404.000			15.443			-3.861
18504.000			15.440			-3.860
18604.000			15.436			-3.859
18705.000			15.434			-3.859
18804.000			15.433			-3.858
18904.000			15.431			-3.858
19005.000			15.428			-3.857
19104.000			15.426			-3.857
19203.000			15.425			-3.856
19305.000			15.423			-3.856
19404.000			15.419			-3.855
19504.000			15.418			-3.854
19605.000			15.416			-3.854
19704.000			15.413			-3.853
19804.000			15.411			-3.853
19904.000			15.409			-3.852
20004.000			15.408			-3.852
20104.000			15.404			-3.851
20205.000			15.401			-3.850
20304.000			15.401			-3.850
20404.000			15.399			-3.850
20505.000			15.397			-3.849
20603.000			15.395			-3.849
20704.000			15.393			-3.848
20805.000			15.391			-3.848
20904.000			15.388			-3.847
21004.000			15.387			-3.847
21105.000			15.386			-3.846
21204.000			15.384			-3.846
21303.000			15.383			-3.846
21405.000			15.380			-3.845
21504.000			15.377			-3.844
21604.000			15.375			-3.844
21705.000			15.373			-3.843
21803.000			15.372			-3.843
21905.000			15.370			-3.843
22004.000			15.369			-3.842
22104.000			15.367			-3.842
22205.000			15.366			-3.842
22304.000			15.362			-3.840
22404.000			15.361			-3.840
22504.000			15.360			-3.840
22604.000			15.358			-3.839
22704.000			15.356			-3.839
22805.000			15.355			-3.839
22904.000			15.353			-3.838
23004.000			15.351			-3.838
23105.000			15.350			-3.837
23203.000			15.348			-3.837
23304.000			15.345			-3.836
23405.000			15.344			-3.836
23504.000			15.344			-3.836
23604.000			15.341			-3.835
23704.000			15.338			-3.834
23804.000			15.336			-3.834
23903.000			15.335			-3.834
24005.000			15.333			-3.833
24104.000			15.332			-3.833
24204.000			15.331			-3.833
24305.000			15.331			-3.833
24403.000			15.329			-3.832
24504.000			15.325			-3.831
24605.000			15.323			-3.831
24704.000			15.321			-3.830
24804.000			15.321			-3.830
24905.000			15.320			-3.830
25004.000			15.319			-3.830
25103.000			15.317			-3.829
25204.000			15.314			-3.828
25304.000			15.312			-3.828
25405.000			15.311			-3.828
25504.000			15.311			-3.828
25604.000			15.310			-3.827
25705.000			15.308			-3.827
25803.000			15.306			-3.827
25904.000			15.304			-3.826
26005.000			15.303			-3.826
26104.000			15.300			-3.825
26204.000			15.299			-3.825
26304.000			15.298			-3.824
26404.000			15.296			-3.824
26504.000			15.295			-3.824
26605.000			15.291			-3.823
26704.000			15.290			-3.822
26804.000			15.288			-3.822
26905.000			15.286			-3.822
27003.000			15.286			-3.821
27104.000			15.285			-3.821
27205.000			15.284			-3.821
27304.000			15.283			-3.821
27404.000			15.279			-3.820
27505.000			15.278			-3.819
27604.000			15.277			-3.819
27703.000			15.276			-3.819
27805.000			15.274			-3.818
27904.000			15.271			-3.818
28004.000			15.270			-3.817
28105.000			15.269			-3.817
28204.000			15.268			-3.817
28305.000			15.265			-3.816
28403.000			15.264			-3.816
28504.000			15.264			-3.816
28605.000			15.262			-3.816
28704.000			15.262			-3.815
28804.000			15.259			-3.815
28905.000			15.257			-3.814
29004.000			15.255			-3.814
29103.000			15.255			-3.814
29205.000			15.254			-3.813
29304.000			15.252			-3.813
29404.000			15.252			-3.813
29505.000			15.250			-3.813
29604.000			15.248			-3.812
29704.000			15.247			-3.812
29804.000			15.245			-3.811
29904.000			15.244			-3.811
30004.000			15.243			-3.811
30105.000			15.242			-3.810
30204.000			15.241			-3.810
30304.000			15.239			-3.810
30405.000			15.238			-3.809
30503.000			15.236			-3.809
30604.000			15.234			-3.809
30705.000			15.233			-3.808
30804.000			15.233			-3.808
30904.000			15.232			-3.808
31005.000			15.228			-3.807
31104.000			15.227			-3.807
31203.000			15.227			-3.807
31305.000			15.226			-3.807
31404.000			15.225			-3.806
31505.000			15.224			-3.806
31604.000			15.223			-3.806
31703.000			15.222			-3.805
31805.000			15.218			-3.804
31904.000			15.217			-3.804
32004.000			15.217			-3.804
32105.000			15.215			-3.804
32204.000			15.214			-3.804
32304.000			15.213			-3.803
32404.000			15.211			-3.803
32504.000			15.209			-3.802
32604.000			15.208			-3.802
32705.000			15.207			-3.802
32804.000			15.206			-3.802
32904.000			15.206			-3.801
33005.000			15.205			-3.801
33103.000			15.204			-3.801
33204.000			15.200			-3.800
33305.000			15.199			-3.800
33404.000			15.199			-3.800
33504.000			15.198			-3.799
33604.000			15.197			-3.799
33704.000			15.196			-3.799
33803.000			15.194			-3.799
33905.000			15.193			-3.798
34004.000			15.192			-3.798
34104.000			15.191			-3.798
34205.000			15.189			-3.797
34303.000			15.188			-3.797
34404.000			15.188			-3.797
34505.000			15.187			-3.797
34604.000			15.186			-3.797
34705.000			15.182			-3.796
34804.000			15.181			-3.795
34904.000			15.181			-3.795
35004.000			15.181			-3.795
35104.000			15.181			-3.795
35204.000			15.179			-3.795
35305.000			15.178			-3.794
35404.000			15.176			-3.794
35504.000			15.175			-3.794
35605.000			15.174			-3.793
35703.000			15.173			-3.793
35804.000			15.172			-3.793
35905.000			15.171			-3.793
36004.000			15.171			-3.793
36104.000			15.169			-3.792
36205.000			15.168			-3.792
36304.000			15.167			-3.792
36403.000			15.166			-3.792
36505.000			15.166			-3.791
36604.000			15.165			-3.791
36704.000			15.164			-3.791
36805.000			15.161			-3.790
36904.000			15.161			-3.790
37004.000			15.160			-3.790
37104.000			15.159			-3.790
37204.000			15.158			-3.790
37304.000			15.157			-3.789
37405.000			15.155			-3.789
37504.000			15.155			-3.789
37604.000			15.152			-3.788
37705.000			15.151			-3.788
37803.000			15.151			-3.788
37905.000			15.150			-3.787
38004.000			15.149			-3.787
38104.000			15.149			-3.787
38205.000			15.147			-3.787
38304.000			15.144			-3.786
38404.000			15.143			-3.786
38504.000			15.144			-3.786
38604.000			15.142			-3.786
38704.000			15.142			-3.786
38805.000			15.141			-3.785
38904.000			15.139			-3.785
39003.000			15.138			-3.784
39105.000			15.136			-3.784
39204.000			15.135			-3.784
39304.000			15.135			-3.784
39405.000			15.134			-3.784
39504.000			15.133			-3.783
39604.000			15.133			-3.783
39704.000			15.131			-3.783
39804.000			15.130			-3.782
39904.000			15.128			-3.782
40005.000			15.128			-3.782
40104.000			15.128			-3.782
40204.000			15.126			-3.781
40305.000			15.124			-3.781
40403.000			15.123			-3.781
40504.000			15.123			-3.781
40605.000			15.122			-3.780
40704.000			15.120			-3.780
40804.000			15.119			-3.780
40905.000			15.119			-3.780
41004.000			15.118			-3.779
41103.000			15.117			-3.779
41204.000			15.115			-3.779
41304.000			15.115			-3.779
41405.000			15.114			-3.778
41504.000			15.113			-3.778
41603.000			15.111			-3.778
41705.000			15.110			-3.778
41804.000			15.110			-3.778
41904.000			15.109			-3.777
42005.000			15.107			-3.777
42104.000			15.106			-3.777
42204.000			15.106			-3.776
42304.000			15.104			-3.776
42404.000			15.104			-3.776
42504.000			15.102			-3.776
42605.000			15.101			-3.775
42704.000			15.101			-3.775
42803.000			15.101			-3.775
42905.000			15.099			-3.775
43004.000			15.097			-3.774
43104.000			15.096			-3.774
43205.000			15.096			-3.774
43304.000			15.095			-3.774
43404.000			15.093			-3.773
43504.000			15.093			-3.773
43604.000			15.093			-3.773
43704.000			15.092			-3.773
43805.000			15.091			-3.773
43904.000			15.090			-3.773
44004.000			15.089			-3.772
44105.000			15.088			-3.772
44203.000			15.088			-3.772
44305.000			15.086			-3.771
44404.000			15.085			-3.771
44504.000			15.086			-3.771
44605.000			15.085			-3.771
44704.000			15.082			-3.770
44804.000			15.081			-3.770
44904.000			15.080			-3.770
45004.000			15.079			-3.770
45104.000			15.079			-3.770
45205.000			15.079			-3.770
45304.000			15.078			-3.770
45404.000			15.077			-3.769
45505.000			15.076			-3.769
45603.000			15.075			-3.769
45704.000			15.073			-3.768
45805.000			15.071			-3.768
45904.000			15.071			-3.768
46004.000			15.071			-3.768
46104.000			15.070			-3.767
46204.000			15.070			-3.767
46303.000			15.069			-3.767
46405.000			15.067			-3.767
46504.000			15.066			-3.767
46604.000			15.067			-3.767
46705.000			15.066			-3.766
46803.000			15.064			-3.766
46904.000			15.064			-3.766
47005.000			15.063			-3.766
47104.000			15.061			-3.765
47204.000			15.061			-3.765
47305.000			15.061			-3.765
47404.000			15.059			-3.765
47503.000			15.058			-3.765
47604.000			15.058			-3.765
47704.000			15.058			-3.764
47805.000			15.056			-3.764
47904.000			15.055			-3.764
48004.000			15.054			-3.764
48105.000			15.054			-3.763
48203.000			15.052			-3.763
48304.000			15.052			-3.763
48405.000			15.051			-3.763
48504.000			15.050			-3.763
48604.000			15.050			-3.763
48705.000			15.049			-3.762
48804.000			15.048			-3.762
48903.000			15.047			-3.762
49005.000			15.047			-3.762
49104.000			15.045			-3.761
49204.000			15.046			-3.761
49305.000			15.045			-3.761
49404.000			15.044			-3.761
49504.000			15.042			-3.760
49604.000			15.041			-3.760
49704.000			15.041			-3.760
49804.000			15.040			-3.760
49905.000			15.040			-3.760
50004.000			15.037			-3.759
50104.000			15.037			-3.759
50205.000			15.036			-3.759
50303.000			15.035			-3.759
50404.000			15.035			-3.759
50505.000			15.035			-3.759
50604.000			15.034			-3.758
50705.000			15.032			-3.758
50803.000			15.031			-3.758
50904.000			15.031			-3.758
51005.000			15.030			-3.758
51104.000			15.029			-3.757
51204.000			15.029			-3.757
51305.000			15.028			-3.757
51404.000			15.028			-3.757
51503.000			15.027			-3.757
51605.000			15.026			-3.756
51704.000			15.024			-3.756
51804.000			15.023			-3.756
51905.000			15.023			-3.756
52004.000			15.022			-3.755
52104.000			15.021			-3.755
52204.000			15.020			-3.755
52304.000			15.020			-3.755
52404.000			15.019			-3.755
52505.000			15.018			-3.755
52604.000			15.017			-3.754
52703.000			15.015			-3.754
52805.000			15.016			-3.754
52904.000			15.015			-3.754
53004.000			15.014			-3.753
53105.000			15.013			-3.753
53204.000			15.012			-3.753
53304.000			15.012			-3.753
53404.000			15.012			-3.753
53504.000			15.011			-3.753
53604.000			15.011			-3.753
53705.000			15.009			-3.752
53804.000			15.008			-3.752
53903.000			15.007			-3.752
54004.000			15.007			-3.752
54104.000			15.006			-3.752
54205.000			15.005			-3.751
54304.000			15.005			-3.751
54404.000			15.004			-3.751
54505.000			15.004			-3.751
54603.000			15.001			-3.750
54704.000			15.001			-3.750
54805.000			15.001			-3.750
54904.000			15.001			-3.750
55004.000			15.000			-3.750
55105.000			14.999			-3.750
55204.000			14.998			-3.750
55303.000			14.997			-3.749
55405.000			14.997			-3.749
55504.000			14.996			-3.749
55604.000			14.995			-3.749
55705.000			14.994			-3.748
55804.000			14.994			-3.749
55904.000			14.993			-3.748
56004.000			14.992			-3.748
56104.000			14.992			-3.748
56204.000			14.992			-3.748
56305.000			14.991			-3.748
56404.000			14.990			-3.748
56504.000			14.990			-3.747
56605.000			14.989			-3.747
56703.000			14.989			-3.747
56804.000			14.987			-3.747
56905.000			14.986			-3.747
57004.000			14.986			-3.746
57105.000			14.985			-3.746
57204.000			14.984			-3.746
57304.000			14.983			-3.746
57404.000			14.983			-3.746
57504.000			14.982			-3.746
57604.000			14.981			-3.745
57705.000			14.981			-3.745
57804.000			14.980			-3.745
57904.000			14.979			-3.745
58005.000			14.978			-3.745
58103.000			14.978			-3.745
58204.000			14.978			-3.744
58305.000			14.977			-3.744
58404.000			14.976			-3.744
58504.000			14.976			-3.744
58605.000			14.976			-3.744
58704.000			14.974			-3.743
58803.000			14.974			-3.743
58905.000			14.974			-3.743
59004.000			14.972			-3.743
59104.000			14.972			-3.743
59205.000			14.972			-3.743
59304.000			14.972			-3.743
59404.000			14.970			-3.743
59504.000			14.969			-3.742
59604.000			14.969			-3.742
59704.000			14.968			-3.742
59805.000			14.968			-3.742
59904.000			14.967			-3.742
60004.000			14.966			-3.742
60105.000			14.966			-3.742
60203.000			14.964			-3.741
60305.000			14.964			-3.741
60404.000			14.963			-3.741
60504.000			14.963			-3.741
60605.000			14.962			-3.741
60704.000			14.961			-3.740
60804.000			14.960			-3.740
60904.000			14.959			-3.740
61004.000			14.959			-3.740
61104.000			14.959			-3.740
61205.000			14.958			-3.740
61304.000			14.957			-3.739
61404.000			14.957			-3.739
61505.000			14.956			-3.739
61603.000			14.954			-3.739
61704.000			14.954			-3.738
61805.000			14.954			-3.738
61904.000			14.953			-3.738
62004.000			14.953			-3.738
62105.000			14.953			-3.738
62204.000			14.951			-3.738
62303.000			14.952			-3.738
62405.000			14.949			-3.737
62504.000			14.950			-3.737
62604.000			14.949			-3.737
62705.000			14.949			-3.737
62804.000			14.948			-3.737
62904.000			14.947			-3.737
63004.000			14.946			-3.737
63104.000			14.945			-3.736
63203.000			14.944			-3.736
63305.000			14.944			-3.736
63404.000			14.943			-3.736
63505.000			14.942			-3.736
63604.000			14.943			-3.736
63704.000			14.942			-3.736
63805.000			14.942			-3.736
63903.000			14.941			-3.735
64004.000			14.940			-3.735
64105.000			14.939			-3.735
64204.000			14.938			-3.735
64304.000			14.938			-3.734
64405.000			14.938			-3.735
64504.000			14.938			-3.735
64603.000			14.936			-3.734
64705.000			14.935			-3.734
64804.000			14.935			-3.734
64904.000			14.935			-3.734
65005.000			14.934			-3.733
65104.000			14.934			-3.734
65204.000			14.933			-3.733
65304.000			14.932			-3.733
65404.000			14.932			-3.733
65504.000			14.931			-3.733
65605.000			14.929			-3.732
65704.000			14.928			-3.732
65803.000			14.928			-3.732
65905.000			14.929			-3.732
66003.000			14.928			-3.732
66104.000			14.927			-3.732
66205.000			14.926			-3.732
66304.000			14.926			-3.731
66404.000			14.926			-3.731
66505.000			14.926			-3.732
66604.000			14.925			-3.731
66703.000			14.924			-3.731
66804.000			14.921			-3.730
66904.000			14.922			-3.730
67005.000			14.922			-3.730
67104.000			14.922			-3.731
67204.000			14.921			-3.730
67305.000			14.921			-3.730
67403.000			14.920			-3.730
67504.000			14.919			-3.730
67605.000			14.919			-3.730
67704.000			14.919			-3.730
67804.000			14.917			-3.729
67905.000			14.917			-3.729
68004.000			14.917			-3.729
68103.000			14.915			-3.729
68205.000			14.914			-3.729
68304.000			14.914			-3.728
68404.000			14.914			-3.728
68505.000			14.913			-3.728
68604.000			14.912			-3.728
68704.000			14.911			-3.728
68804.000			14.911			-3.728
68904.000			14.909			-3.727
69004.000			14.909			-3.727
69105.000			14.909			-3.727
69204.000			14.909			-3.727
69304.000			14.908			-3.727
69405.000			14.908			-3.727
69503.000			14.908			-3.727
69604.000			14.907			-3.727
69705.000			14.906			-3.727
69804.000			14.906			-3.726
69905.000			14.905			-3.726
70004.000			14.905			-3.726
70104.000			14.904			-3.726
70204.000			14.903			-3.726
70304.000			14.904			-3.726
70404.000			14.902			-3.725
70505.000			14.901			-3.725
70604.000			14.901			-3.725
70704.000			14.900			-3.725
70805.000			14.900			-3.725
70903.000			14.900			-3.725
71004.000			14.900			-3.725
71105.000			14.898			-3.725
71204.000			14.898			-3.724
71304.000			14.898			-3.724
71405.000			14.897			-3.724
71504.000			14.897			-3.724
71603.000			14.896			-3.724
71705.000			14.896			-3.724
71804.000			14.894			-3.723
71904.000			14.893			-3.723
72005.000			14.893			-3.723
72104.000			14.894			-3.723
72204.000			14.893			-3.723
72304.000			14.892			-3.723
72404.000			14.891			-3.723
72504.000			14.891			-3.723
72605.000			14.891			-3.723
72704.000			14.890			-3.723
72804.000			14.890			-3.723
72905.000			14.889			-3.722
73003.000			14.888			-3.722
73105.000			14.887			-3.722
73204.000			14.887			-3.722
73304.000			14.886			-3.721
73405.000			14.886			-3.722
73504.000			14.887			-3.722
73604.000			14.885			-3.721
73704.000			14.884			-3.721
73804.000			14.884			-3.721
73904.000			14.883			-3.721
74005.000			14.883			-3.721
74104.000			14.883			-3.721
74204.000			14.883			-3.721
74305.000			14.883			-3.721
74403.000			14.883			-3.721
74504.000			14.882			-3.721
74605.000			14.881			-3.720
74704.000			14.882			-3.720
74804.000			14.880			-3.720
74905.000			14.880			-3.720
75004.000			14.880			-3.720
75104.000			14.878			-3.720
75205.000			14.878			-3.719
75303.000			14.878			-3.719
75404.000			14.878			-3.719
75505.000			14.876			-3.719
75604.000			14.876			-3.719
75704.000			14.876			-3.719
75805.000			14.876			-3.719
75904.000			14.875			-3.719
76003.000			14.874			-3.718
76105.000			14.873			-3.718
76204.000			14.872			-3.718
76305.000			14.871			-3.718
76404.000			14.871			-3.718
76504.000			14.870			-3.718
76605.000			14.870			-3.718
76703.000			14.870			-3.717
76804.000			14.869			-3.717
76905.000			14.868			-3.717
77004.000			14.868			-3.717
77104.000			14.867			-3.717
77205.000			14.867			-3.717
77304.000			14.866			-3.717
77403.000			14.866			-3.717
77505.000			14.865			-3.716
77604.000			14.864			-3.716
77704.000			14.865			-3.716
77805.000			14.864			-3.716
77904.000			14.863			-3.716
78004.000			14.863			-3.716
78105.000			14.862			-3.716
78204.000			14.861			-3.715
78303.000			14.862			-3.715
78405.000			14.860			-3.715
78504.000			14.859			-3.715
78604.000			14.858			-3.715
78705.000			14.858			-3.715
78804.000			14.858			-3.715
78904.000			14.859			-3.715
79004.000			14.858			-3.714
79104.000			14.856			-3.714
79204.000			14.856			-3.714
79305.000			14.855			-3.714
79404.000			14.855			-3.714
79505.000			14.855			-3.714
79604.000			14.854			-3.714
79703.000			14.854			-3.713
79805.000			14.853			-3.713
79904.000			14.852			-3.713
80004.000			14.852			-3.713
80105.000			14.851			-3.713
80204.000			14.851			-3.713
80304.000			14.851			-3.713
80404.000			14.850			-3.712
80504.000			14.849			-3.712
80604.000			14.848			-3.712
80705.000			14.847			-3.712
80804.000			14.848			-3.712
80904.000			14.848			-3.712
81005.000			14.848			-3.712
81103.000			14.847			-3.712
81204.000			14.845			-3.711
81305.000			14.845			-3.711
81404.000			14.845			-3.711
81504.000			14.844			-3.711
81605.000			14.843			-3.711
81704.000			14.844			-3.711
81803.000			14.843			-3.711
81905.000			14.842			-3.711
82004.000			14.842			-3.710
82104.000			14.842			-3.711
82205.000			14.841			-3.710
82304.000			14.841			-3.710
82404.000			14.840			-3.710
82504.000			14.839			-3.710
82604.000			14.839			-3.710
82705.000			14.839			-3.710
82804.000			14.838			-3.709
82904.000			14.837			-3.709
83005.000			14.837			-3.709
83104.000			14.837			-3.709
83203.000			14.837			-3.709
83305.000			14.835			-3.709
83404.000			14.836			-3.709
83504.000			14.835			-3.709
83605.000			14.835			-3.709
83704.000			14.835			-3.709
83804.000			14.834			-3.708
83905.000			14.833			-3.708
84004.000			14.833			-3.708
84103.000			14.832			-3.708
84205.000			14.830			-3.707
84304.000			14.831			-3.708
84404.000			14.831			-3.708
84505.000			14.830			-3.708
84604.000			14.830			-3.708
84704.000			14.830			-3.707
84804.000			14.829			-3.707
84904.000			14.829			-3.707
85004.000			14.827			-3.707
85105.000			14.827			-3.707
85204.000			14.827			-3.707
85304.000			14.827			-3.707
85405.000			14.827			-3.707
85503.000			14.826			-3.706
85604.000			14.825			-3.706
85705.000			14.824			-3.706
85804.000			14.824			-3.706
85905.000			14.824			-3.706
86004.000			14.824			-3.706
86104.000			14.822			-3.706
86204.000			14.822			-3.705
86304.000			14.822			-3.705
86404.000			14.821			-3.705
86505.000			14.821			-3.705
86604.000			14.820			-3.705
86704.000			14.819			-3.705
86805.000			14.820			-3.705
86903.000			14.819			-3.705
87004.000			14.820			-3.705
87105.000			14.821			-3.705
87204.000			14.817			-3.704
87304.000			14.818			-3.704
87405.000			14.816			-3.704
87504.000			14.816			-3.704
87603.000			14.816			-3.704
87705.000			14.815			-3.704
87804.000			14.815			-3.704
87904.000			14.816			-3.704
88005.000			14.815			-3.704
88104.000			14.815			-3.704
88204.000			14.814			-3.704
88304.000			14.813			-3.703
88404.000			14.813			-3.703
88504.000			14.813			-3.703
88605.000			14.811			-3.703
88704.000			14.811			-3.703
88804.000			14.811			-3.703
88905.000			14.811			-3.703
89003.000			14.810			-3.703
89105.000			14.810			-3.703
89204.000			14.810			-3.703
89304.000			14.810			-3.703
89405.000			14.808			-3.702
89504.000			14.809			-3.702
89604.000			14.808			-3.702
89704.000			14.807			-3.702
89804.000			14.806			-3.702
89904.000			14.806			-3.702
90005.000			14.806			-3.701
90104.000			14.806			-3.701
90204.000			14.805			-3.701
90305.000			14.806			-3.701
90403.000			14.806			-3.701
90504.000			14.805			-3.701
90605.000			14.804			-3.701
90704.000			14.803			-3.701
90804.000			14.803			-3.701
90905.000			14.801			-3.700
91004.000			14.802			-3.700
91103.000			14.801			-3.700
91205.000			14.801			-3.700
91304.000			14.801			-3.700
91404.000			14.799			-3.700
91505.000			14.799			-3.700
91604.000			14.800			-3.700
91704.000			14.799			-3.700
91804.000			14.797			-3.699
91904.000			14.797			-3.699
92004.000			14.797			-3.699
92105.000			14.797			-3.699
92204.000			14.797			-3.699
92305.000			14.796			-3.699
92404.000			14.796			-3.699
92503.000			14.795			-3.699
92605.000			14.795			-3.699
92704.000			14.795			-3.699
92804.000			14.793			-3.698
92905.000			14.794			-3.698
93004.000			14.793			-3.698
93104.000			14.792			-3.698
93204.000			14.792			-3.698
93304.000			14.792			-3.698
93403.000			14.791			-3.698
93505.000			14.791			-3.698
93604.000			14.790			-3.698
93704.000			14.790			-3.698
93805.000			14.790			-3.697
93904.000			14.789			-3.697
94004.000			14.788			-3.697
94104.000			14.788			-3.697
94204.000			14.788			-3.697
94304.000			14.788			-3.697
94405.000			14.787			-3.697
94504.000			14.786			-3.696
94604.000			14.785			-3.696
94705.000			14.785			-3.696
94803.000			14.785			-3.696
94904.000			14.785			-3.696
95005.000			14.784			-3.696
95104.000			14.784			-3.696
95204.000			14.783			-3.696
95305.000			14.783			-3.696
95404.000			14.783			-3.696
95503.000			14.782			-3.695
95604.000			14.783			-3.696
95704.000			14.782			-3.696
95805.000			14.780			-3.695
95904.000			14.780			-3.695
96004.000			14.780			-3.695
96105.000			14.779			-3.695
96203.000			14.780			-3.695
96304.000			14.780			-3.695
96404.000			14.780			-3.695
96504.000			14.779			-3.695
96604.000			14.777			-3.694
96705.000			14.777			-3.694
96804.000			14.778			-3.694
96904.000			14.777			-3.694
97005.000			14.776			-3.694
97103.000			14.776			-3.694
97204.000			14.776			-3.694
97305.000			14.775			-3.694
97404.000			14.775			-3.694
97504.000			14.774			-3.693
97605.000			14.774			-3.693
97704.000			14.772			-3.693
97803.000			14.772			-3.693
97905.000			14.772			-3.693
98004.000			14.772			-3.693
98104.000			14.771			-3.693
98205.000			14.771			-3.693
98304.000			14.771			-3.693
98404.000			14.772			-3.693
98504.000			14.771			-3.693
98604.000			14.770			-3.693
98705.000			14.770			-3.692
98804.000			14.769			-3.692
98904.000			14.769			-3.692
99005.000			14.769			-3.692
99104.000			14.768			-3.692
99204.000			14.767			-3.692
99305.000			14.766			-3.692
99403.000			14.766			-3.692
99504.000			14.766			-3.691
99605.000			14.765			-3.691
99704.000			14.765			-3.691
99804.000			14.765			-3.691
99905.000			14.764			-3.691
100004.000			14.764			-3.691
100103.000			14.764			-3.691
100205.000			14.764			-3.691
100304.000			14.763			-3.691
100404.000			14.763			-3.691
100505.000			14.762			-3.691
100604.000			14.762			-3.690
100704.000			14.762			-3.691
100804.000			14.762			-3.691
100904.000			14.761			-3.690
101004.000			14.760			-3.690
101105.000			14.759			-3.690
101204.000			14.759			-3.690
101304.000			14.759			-3.690
101405.000			14.759			-3.690
101504.000			14.759			-3.690
101604.000			14.758			-3.689
101704.000			14.757			-3.689
101804.000			14.757			-3.689
101905.000			14.755			-3.689
102004.000			14.756			-3.689
102104.000			14.756			-3.689
102205.000			14.755			-3.689
102304.000			14.755			-3.689
102403.000			14.755			-3.689
102505.000			14.754			-3.689
102604.000			14.753			-3.688
102704.000			14.753			-3.688
102805.000			14.753			-3.688
102904.000			14.753			-3.688
103004.000			14.752			-3.688
103104.000			14.752			-3.688
103204.000			14.751			-3.688
103304.000			14.751			-3.688
103405.000			14.750			-3.688
103504.000			14.751			-3.688
103604.000			14.751			-3.688
103705.000			14.749			-3.687
103803.000			14.749			-3.687
103904.000			14.747			-3.687
104005.000			14.747			-3.687
104104.000			14.747			-3.687
104204.000			14.747			-3.687
104305.000			14.747			-3.687
104404.000			14.747			-3.687
104503.000			14.746			-3.686
104605.000			14.746			-3.687
104704.000			14.746			-3.686
104804.000			14.745			-3.686
104905.000			14.745			-3.686
105004.000			14.744			-3.686
105105.000			14.743			-3.686
105203.000			14.743			-3.686
105304.000			14.744			-3.686
105405.000			14.742			-3.686
105504.000			14.742			-3.685
105604.000			14.741			-3.685
105705.000			14.741			-3.685
105804.000			14.740			-3.685
105903.000			14.740			-3.685
106005.000			14.741			-3.685
106104.000			14.739			-3.685
106204.000			14.739			-3.685
106305.000			14.740			-3.685
106404.000			14.739			-3.685
106504.000			14.739			-3.685
106604.000			14.738			-3.684
106704.000			14.738			-3.684
106804.000			14.736			-3.684
106905.000			14.735			-3.684
107004.000			14.735			-3.684
107104.000			14.735			-3.684
107205.000			14.735			-3.684
107304.000			14.734			-3.684
107404.000			14.734			-3.683
107504.000			14.735			-3.684
107604.000			14.735			-3.684
107704.000			14.734			-3.683
107805.000			14.733			-3.683
107904.000			14.733			-3.683
108004.000			14.732			-3.683
108105.000			14.732			-3.683
108203.000			14.732			-3.683
108305.000			14.731			-3.683
108404.000			14.730			-3.683
108504.000			14.730			-3.683
108605.000			14.730			-3.682
108704.000			14.730			-3.683
108804.000			14.731			-3.683
108904.000			14.730			-3.683
109004.000			14.728			-3.682
109104.000			14.728			-3.682
109205.000			14.728			-3.682
109304.000			14.728			-3.682
109404.000			14.728			-3.682
109505.000			14.727			-3.682
109603.000			14.726			-3.682
109704.000			14.726			-3.682
109805.000			14.726			-3.682
109904.000			14.725			-3.681
110004.000			14.726			-3.681
110105.000			14.726			-3.682
110204.000			14.726			-3.681
110303.000			14.725			-3.681
110405.000			14.724			-3.681
110504.000			14.725			-3.681
110604.000			14.723			-3.681
110705.000			14.723			-3.681
110804.000			14.722			-3.681
110904.000			14.722			-3.681
111004.000			14.721			-3.680
111104.000			14.721			-3.680
111204.000			14.720			-3.680
111305.000			14.719			-3.680
111404.000			14.718			-3.680
111505.000			14.718			-3.680
111604.000			14.719			-3.680
111703.000			14.718			-3.680
111805.000			14.719			-3.680
111904.000			14.718			-3.679
112004.000			14.718			-3.679
112105.000			14.717			-3.679
112204.000			14.717			-3.679
112304.000			14.717			-3.679
112404.000			14.716			-3.679
112504.000			14.715			-3.679
112603.000			14.715			-3.679
112705.000			14.715			-3.679
112804.000			14.715			-3.679
112904.000			14.715			-3.679
113005.000			14.714			-3.679
113104.000			14.713			-3.678
113204.000			14.713			-3.678
113304.000			14.713			-3.678
113404.000			14.713			-3.678
113504.000			14.712			-3.678
113605.000			14.712			-3.678
113704.000			14.712			-3.678
113804.000			14.711			-3.678
113905.000			14.710			-3.678
114003.000			14.709			-3.677
114104.000			14.710			-3.678
114205.000			14.710			-3.678
114304.000			14.709			-3.677
114404.000			14.709			-3.677
114505.000			14.708			-3.677
114604.000			14.707			-3.677
114703.000			14.708			-3.677
114804.000			14.708			-3.677
114904.000			14.707			-3.677
115005.000			14.707			-3.677
115104.000			14.706			-3.677
115204.000			14.706			-3.676
115305.000			14.705			-3.676
115403.000			14.706			-3.677
115504.000			14.705			-3.676
115605.000			14.704			-3.676
115704.000			14.704			-3.676
115804.000			14.704			-3.676
115905.000			14.704			-3.676
116004.000			14.704			-3.676
116103.000			14.704			-3.676
116205.000			14.703			-3.676
116304.000			14.703			-3.676
116404.000			14.703			-3.676
116505.000			14.703			-3.676
116604.000			14.703			-3.676
116704.000			14.703			-3.676
116804.000			14.702			-3.676
116904.000			14.702			-3.676
117004.000			14.702			-3.675
117105.000			14.701			-3.675
117204.000			14.700			-3.675
117304.000			14.700			-3.675
117405.000			14.700			-3.675
117503.000			14.699			-3.675
117604.000			14.698			-3.675
117705.000			14.699			-3.675
117804.000			14.698			-3.675
117905.000			14.698			-3.674
118004.000			14.698			-3.674
118104.000			14.697			-3.674
118205.000			14.697			-3.674
118304.000			14.697			-3.674
118403.000			14.696			-3.674
118505.000			14.695			-3.674
118604.000			14.696			-3.674
118704.000			14.695			-3.674
118805.000			14.694			-3.674
118904.000			14.694			-3.673
119004.000			14.693			-3.673
119104.000			14.693			-3.673
119204.000			14.694			-3.673
119304.000			14.692			-3.673
119405.000			14.692			-3.673
119504.000			14.692			-3.673
119604.000			14.692			-3.673
119705.000			14.693			-3.673
119804.000			14.693			-3.673
119904.000			14.693			-3.673
120004.000			14.691			-3.673
120104.000			14.690			-3.672
120204.000			14.690			-3.672
120305.000			14.689			-3.672
120404.000			14.688			-3.672
120504.000			14.688			-3.672
120605.000			14.688			-3.672
120703.000			14.689			-3.672
120804.000			14.689			-3.672
120905.000			14.688			-3.672
121004.000			14.688			-3.672
121105.000			14.688			-3.672
121204.000			14.687			-3.672
121304.000			14.687			-3.672
121404.000			14.686			-3.672
121504.000			14.687			-3.672
121604.000			14.686			-3.671
121705.000			14.685			-3.671
121804.000			14.685			-3.671
121904.000			14.684			-3.671
122005.000			14.685			-3.671
122104.000			14.684			-3.671
122204.000			14.684			-3.671
122304.000			14.684			-3.671
122404.000			14.684			-3.671
122504.000			14.683			-3.671
122605.000			14.682			-3.670
122704.000			14.682			-3.671
122804.000			14.682			-3.671
122905.000			14.682			-3.671
123003.000			14.682			-3.671
123104.000			14.681			-3.670
123205.000			14.680			-3.670
123304.000			14.680			-3.670
123404.000			14.679			-3.670
123505.000			14.680			-3.670
123604.000			14.680			-3.670
123703.000			14.679			-3.670
123805.000			14.678			-3.669
123904.000			14.678			-3.670
124004.000			14.679			-3.670
124105.000			14.678			-3.670
124204.000			14.677			-3.669
124305.000			14.677			-3.669
124404.000			14.677			-3.669
124504.000			14.676			-3.669
124604.000			14.676			-3.669
124704.000			14.676			-3.669
124804.000			14.676			-3.669
124905.000			14.676			-3.669
125004.000			14.675			-3.669
125104.000			14.675			-3.669
125205.000			14.675			-3.669
125303.000			14.673			-3.668
125404.000			14.673			-3.668
125505.000			14.673			-3.668
125604.000			14.673			-3.668
125704.000			14.673			-3.668
125805.000			14.674			-3.669
125904.000			14.673			-3.668
126003.000			14.673			-3.668
126105.000			14.672			-3.668
126204.000			14.672			-3.668
126304.000			14.672			-3.668
126405.000			14.671			-3.668
126504.000			14.670			-3.668
126604.000			14.671			-3.668
126704.000			14.670			-3.667
126804.000			14.669			-3.667
126903.000			14.670			-3.667
127005.000			14.669			-3.667
127104.000			14.669			-3.667
127204.000			14.669			-3.667
127305.000			14.668			-3.667
127404.000			14.669			-3.667
127505.000			14.668			-3.667
127603.000			14.667			-3.667
127704.000			14.667			-3.667
127805.000			14.667			-3.667
127904.000			14.667			-3.667
128004.000			14.666			-3.667
128105.000			14.666			-3.667
128204.000			14.666			-3.667
128304.000			14.665			-3.666
128405.000			14.664			-3.666
128503.000			14.664			-3.666
128604.000			14.664			-3.666
128705.000			14.663			-3.666
128804.000			14.663			-3.666
128904.000			14.663			-3.666
129005.000			14.663			-3.666
129104.000			14.662			-3.666
129203.000			14.662			-3.666
129305.000			14.663			-3.666
129404.000			14.661			-3.665
129504.000			14.661			-3.665
129605.000			14.660			-3.665
129704.000			14.660			-3.665
129804.000			14.661			-3.665
129904.000			14.661			-3.665
130004.000			14.660			-3.665
130104.000			14.661			-3.665
130205.000			14.660			-3.665
130304.000			14.659			-3.665
130404.000			14.659			-3.665
130505.000			14.660			-3.665
130603.000			14.659			-3.665
130705.000			14.658			-3.664
130803.000			14.658			-3.665
130904.000			14.656			-3.664
131005.000			14.657			-3.664
131104.000			14.656			-3.664
131204.000			14.656			-3.664
131305.000			14.656			-3.664
131404.000			14.656			-3.664
131503.000			14.656			-3.664
131605.000			14.656			-3.664
131704.000			14.656			-3.664
131804.000			14.655			-3.664
131905.000			14.655			-3.664
132004.000			14.654			-3.664
132104.000			14.652			-3.663
132204.000			14.651			-3.663
132304.000			14.652			-3.663
132403.000			14.652			-3.663
132505.000			14.652			-3.663
132604.000			14.652			-3.663
132704.000			14.651			-3.663
132805.000			14.651			-3.663
132904.000			14.651			-3.663
133004.000			14.651			-3.663
133104.000			14.650			-3.662
133204.000			14.650			-3.663
133303.000			14.650			-3.663
133405.000			14.650			-3.663
133504.000			14.649			-3.662
133604.000			14.649			-3.662
133705.000			14.648			-3.662
133804.000			14.648			-3.662
133905.000			14.648			-3.662
134003.000			14.647			-3.662
134104.000			14.647			-3.662
134205.000			14.646			-3.662
134304.000			14.646			-3.662
134404.000			14.645			-3.661
134505.000			14.645			-3.661
134604.000			14.645			-3.661
134704.000			14.646			-3.661
134805.000			14.646			-3.662
134903.000			14.645			-3.661
135004.000			14.645			-3.661
135105.000			14.644			-3.661
135204.000			14.645			-3.661
135304.000			14.644			-3.661
135405.000			14.643			-3.661
135504.000			14.643			-3.661
135604.000			14.644			-3.661
135705.000			14.642			-3.661
135803.000			14.642			-3.661
135904.000			14.642			-3.661
136005.000			14.642			-3.661
136104.000			14.642			-3.660
136204.000			14.642			-3.661
136305.000			14.642			-3.661
136404.000			14.642			-3.660
136503.000			14.641			-3.660
136605.000			14.639			-3.660
136703.000			14.639			-3.660
136804.000			14.639			-3.660
136905.000			14.640			-3.660
137004.000			14.639			-3.660
137105.000			14.638			-3.659
137204.000			14.638			-3.660
137304.000			14.639			-3.660
137404.000			14.637			-3.659
137504.000			14.639			-3.660
137603.000			14.638			-3.659
137705.000			14.637			-3.659
137804.000			14.637			-3.659
137904.000			14.636			-3.659
138005.000			14.637			-3.659
138104.000			14.636			-3.659
138204.000			14.635			-3.659
138304.000			14.635			-3.659
138404.000			14.635			-3.659
138503.000			14.635			-3.659
138605.000			14.636			-3.659
138704.000			14.634			-3.658
138804.000			14.633			-3.658
138905.000			14.634			-3.658
139004.000			14.634			-3.658
139104.000			14.633			-3.658
139204.000			14.633			-3.658
139304.000			14.634			-3.658
139403.000			14.633			-3.658
139505.000			14.632			-3.658
139604.000			14.632			-3.658
139704.000			14.631			-3.658
139805.000			14.631			-3.658
139904.000			14.631			-3.658
140004.000			14.632			-3.658
140104.000			14.631			-3.658
140204.000			14.630			-3.658
140303.000			14.630			-3.658
140404.000			14.630			-3.658
140504.000			14.630			-3.657
140605.000			14.630			-3.658
140704.000			14.630			-3.657
140804.000			14.629			-3.657
140905.000			14.629			-3.657
141003.000			14.629			-3.657
141104.000			14.628			-3.657
141205.000			14.627			-3.657
141304.000			14.627			-3.657
141404.000			14.627			-3.657
141505.000			14.628			-3.657
141604.000			14.627			-3.657
141704.000			14.627			-3.657
141805.000			14.626			-3.657
141903.000			14.626			-3.656
142004.000			14.626			-3.656
142105.000			14.626			-3.656
142204.000			14.626			-3.657
142304.000			14.625			-3.656
142405.000			14.624			-3.656
142504.000			14.624			-3.656
142604.000			14.624			-3.656
142705.000			14.624			-3.656
142803.000			14.624			-3.656
142904.000			14.623			-3.656
143005.000			14.623			-3.656
143104.000			14.622			-3.656
143204.000			14.622			-3.655
143305.000			14.621			-3.655
143404.000			14.621			-3.655
143503.000			14.622			-3.655
143604.000			14.621			-3.655
143703.000			14.622			-3.655
143805.000			14.621			-3.655
143904.000			14.620			-3.655
144004.000			14.620			-3.655
144105.000			14.619			-3.655
144204.000			14.620			-3.655
144304.000			14.619			-3.655
144404.000			14.618			-3.655
144504.000			14.619			-3.655
144603.000			14.618			-3.655
144705.000			14.618			-3.654
144804.000			14.617			-3.654
144904.000			14.618			-3.654
145005.000			14.618			-3.654
145104.000			14.616			-3.654
145204.000			14.617			-3.654
145304.000			14.617			-3.654
145404.000			14.616			-3.654
145504.000			14.615			-3.654
145605.000			14.614			-3.654
145704.000			14.615			-3.654
145804.000			14.616			-3.654
145905.000			14.615			-3.654
146004.000			14.615			-3.654
146104.000			14.615			-3.654
146204.000			14.614			-3.653
146304.000			14.614			-3.653
146404.000			14.613			-3.653
146505.000			14.613			-3.653
146604.000			14.613			-3.653
146705.000			14.612			-3.653
146804.000			14.613			-3.653
146904.000			14.613			-3.653
147005.000			14.611			-3.653
147103.000			14.610			-3.653
147204.000			14.611			-3.653
147305.000			14.612			-3.653
147404.000			14.611			-3.653
147504.000			14.611			-3.653
147605.000			14.610			-3.652
147704.000			14.609			-3.652
147803.000			14.609			-3.652
147905.000			14.609			-3.652
148003.000			14.608			-3.652
148104.000			14.607			-3.652
148205.000			14.608			-3.652
148304.000			14.608			-3.652
148404.000			14.607			-3.652
148505.000			14.607			-3.652
148604.000			14.607			-3.652
148703.000			14.606			-3.652
148805.000			14.606			-3.651
148903.000			14.606			-3.651
149004.000			14.605			-3.651
149105.000			14.606			-3.652
149204.000			14.606			-3.651
149304.000			14.605			-3.651
149405.000			14.604			-3.651
149504.000			14.604			-3.651
149603.000			14.604			-3.651
149705.000			14.604			-3.651
149803.000			14.603			-3.651
149905.000			14.603			-3.651
150004.000			14.604			-3.651
150104.000			14.605			-3.651
150205.000			14.603			-3.651
150304.000			14.602			-3.651
150404.000			14.601			-3.650
150504.000			14.602			-3.651
150604.000			14.602			-3.650
150704.000			14.602			-3.651
150805.000			14.602			-3.650
150904.000			14.601			-3.650
151004.000			14.599			-3.650
151105.000			14.601			-3.650
151204.000			14.601			-3.650
151304.000			14.601			-3.650
151404.000			14.600			-3.650
151504.000			14.599			-3.650
151604.000			14.599			-3.650
151705.000			14.598			-3.650
151804.000			14.599			-3.650
151904.000			14.599			-3.650
152005.000			14.598			-3.650
152104.000			14.597			-3.649
152204.000			14.596			-3.649
152304.000			14.596			-3.649
152404.000			14.597			-3.649
152504.000			14.598			-3.649
152605.000			14.598			-3.649
152704.000			14.597			-3.649
152804.000			14.597			-3.649
152905.000			14.597			-3.649
153004.000			14.596			-3.649
153105.000			14.595			-3.649
153203.000			14.595			-3.649
153304.000			14.595			-3.649
153405.000			14.594			-3.649
153504.000			14.594			-3.648
153604.000			14.593			-3.648
153705.000			14.594			-3.648
153804.000			14.594			-3.648
153904.000			14.593			-3.648
154005.000			14.593			-3.648
154104.000			14.593			-3.648
154204.000			14.592			-3.648
154304.000			14.592			-3.648
154404.000			14.592			-3.648
154504.000			14.593			-3.648
154605.000			14.592			-3.648
154704.000			14.592			-3.648
154804.000			14.592			-3.648
154905.000			14.590			-3.648
155003.000			14.590			-3.648
155104.000			14.591			-3.648
155204.000			14.590			-3.647
155304.000			14.589			-3.647
155404.000			14.588			-3.647
155505.000			14.588			-3.647
155604.000			14.589			-3.647
155704.000			14.589			-3.647
155805.000			14.589			-3.647
155903.000			14.589			-3.647
156004.000			14.589			-3.647
156104.000			14.587			-3.647
156204.000			14.587			-3.647
156305.000			14.588			-3.647
156404.000			14.587			-3.647
156504.000			14.587			-3.647
156605.000			14.586			-3.647
156704.000			14.586			-3.647
156804.000			14.587			-3.647
156905.000			14.587			-3.647
157003.000			14.585			-3.646
157104.000			14.585			-3.646
157205.000			14.585			-3.646
157304.000			14.585			-3.646
157404.000			14.584			-3.646
157505.000			14.584			-3.646
157604.000			14.585			-3.646
157704.000			14.583			-3.646
157805.000			14.583			-3.646
157903.000			14.583			-3.646
158004.000			14.584			-3.646
158105.000			14.583			-3.646
158204.000			14.582			-3.645
158304.000			14.582			-3.645
158405.000			14.581			-3.645
158504.000			14.582			-3.645
158604.000			14.581			-3.645
158705.000			14.581			-3.645
158803.000			14.580			-3.645
158904.000			14.581			-3.645
159005.000			14.581			-3.645
159104.000			14.581			-3.645
159204.000			14.580			-3.645
159305.000			14.580			-3.645
159404.000			14.580			-3.645
159505.000			14.580			-3.645
159604.000			14.579			-3.645
159703.000			14.578			-3.645
159805.000			14.579			-3.645
159904.000			14.578			-3.645
160004.000			14.578			-3.645
160105.000			14.578			-3.644
160204.000			14.578			-3.644
160304.000			14.578			-3.644
160405.000			14.577			-3.644
160504.000			14.577			-3.644
160603.000			14.577			-3.644
160705.000			14.576			-3.644
160804.000			14.576			-3.644
160904.000			14.577			-3.644
161005.000			14.575			-3.644
161104.000			14.574			-3.644
161204.000			14.574			-3.644
161305.000			14.575			-3.644
161404.000			14.574			-3.644
161503.000			14.575			-3.644
161605.000			14.574			-3.644
161704.000			14.574			-3.644
161804.000			14.573			-3.643
161905.000			14.573			-3.643
162004.000			14.572			-3.643
162104.000			14.573			-3.643
162205.000			14.572			-3.643
162304.000			14.572			-3.643
162403.000			14.572			-3.643
162505.000			14.572			-3.643
162604.000			14.571			-3.643
162705.000			14.571			-3.643
162804.000			14.571			-3.643
162904.000			14.573			-3.643
163005.000			14.572			-3.643
163104.000			14.572			-3.643
163204.000			14.571			-3.643
163304.000			14.570			-3.643
163404.000			14.570			-3.642
163504.000			14.570			-3.642
163605.000			14.571			-3.643
163704.000			14.570			-3.642
163804.000			14.569			-3.642
163905.000			14.570			-3.642
164004.000			14.569			-3.642
164104.000			14.569			-3.642
164204.000			14.568			-3.642
164304.000			14.569			-3.642
164404.000			14.568			-3.642
164505.000			14.568			-3.642
164604.000			14.566			-3.642
164704.000			14.567			-3.642
164805.000			14.566			-3.642
164904.000			14.566			-3.642
165004.000			14.567			-3.642
165104.000			14.566			-3.641
165204.000			14.566			-3.641
165304.000			14.565			-3.641
165405.000			14.564			-3.641
165504.000			14.565			-3.641
165604.000			14.566			-3.641
165705.000			14.565			-3.641
165804.000			14.564			-3.641
165905.000			14.563			-3.641
166003.000			14.563			-3.641
166104.000			14.563			-3.641
166205.000			14.563			-3.641
166304.000			14.563			-3.641
166404.000			14.563			-3.641
166505.000			14.563			-3.641
166604.000			14.562			-3.641
166704.000			14.562			-3.640
166805.000			14.561			-3.640
166903.000			14.562			-3.640
167004.000			14.561			-3.640
167105.000			14.561			-3.640
167204.000			14.560			-3.640
167304.000			14.561			-3.640
167405.000			14.561			-3.640
167504.000			14.561			-3.640
167604.000			14.560			-3.640
167705.000			14.559			-3.640
167803.000			14.561			-3.640
167904.000			14.561			-3.640
168005.000			14.560			-3.640
168104.000			14.560			-3.640
168204.000			14.560			-3.640
168305.000			14.559			-3.640
168404.000			14.559			-3.640
168504.000			14.558			-3.640
168605.000			14.557			-3.639
168703.000			14.556			-3.639
168804.000			14.557			-3.639
168904.000			14.555			-3.639
169004.000			14.555			-3.639
169105.000			14.555			-3.639
169204.000			14.555			-3.639
169304.000			14.556			-3.639
169405.000			14.556			-3.639
169504.000			14.555			-3.639
169603.000			14.554			-3.639
169705.000			14.555			-3.639
169803.000			14.556			-3.639
169904.000			14.555			-3.639
170005.000			14.556			-3.639
170104.000			14.555			-3.639
170204.000			14.554			-3.639
170305.000			14.554			-3.638
170404.000			14.553			-3.638
170504.000			14.553			-3.638
170605.000			14.553			-3.638
170703.000			14.554			-3.639
170804.000			14.554			-3.639
170905.000			14.552			-3.638
171004.000			14.553			-3.638
171104.000			14.553			-3.638
171205.000			14.552			-3.638
171304.000			14.552			-3.638
171403.000			14.551			-3.638
171505.000			14.551			-3.638
171603.000			14.552			-3.638
171704.000			14.550			-3.638
171805.000			14.550			-3.638
171904.000			14.550			-3.638
172004.000			14.550			-3.638
172105.000			14.550			-3.638
172204.000			14.550			-3.638
172303.000			14.549			-3.637
172404.000			14.548			-3.637
172504.000			14.549			-3.637
172605.000			14.548			-3.637
172704.000			14.548			-3.637
172804.000			14.548			-3.637
172905.000			14.548			-3.637
173004.000			14.548			-3.637
173104.000			14.547			-3.637
173204.000			14.548			-3.637
173304.000			14.547			-3.637
173403.000			14.547			-3.637
173505.000			14.547			-3.637
173604.000			14.547			-3.637
173704.000			14.547			-3.637
173805.000			14.546			-3.636
173904.000			14.545			-3.636
174004.000			14.546			-3.636
174104.000			14.544			-3.636
174204.000			14.545			-3.636
174303.000			14.545			-3.636
174405.000			14.544			-3.636
174504.000			14.543			-3.636
174604.000			14.543			-3.636
174705.000			14.544			-3.636
174804.000			14.543			-3.636
174904.000			14.543			-3.636
175004.000			14.544			-3.636
175104.000			14.544			-3.636
175204.000			14.543			-3.636
175305.000			14.542			-3.636
175404.000			14.542			-3.636
175505.000			14.542			-3.636
175604.000			14.543			-3.636
175704.000			14.542			-3.636
175805.000			14.542			-3.635
175903.000			14.541			-3.635
176004.000			14.540			-3.635
176105.000			14.540			-3.635
176204.000			14.540			-3.635
176304.000			14.541			-3.635
176405.000			14.540			-3.635
176504.000			14.540			-3.635
176604.000			14.540			-3.635
176705.000			14.538			-3.635
176803.000			14.539			-3.635
176904.000			14.540			-3.635
177004.000			14.539			-3.635
177104.000			14.538			-3.635
177204.000			14.538			-3.634
177305.000			14.537			-3.634
177404.000			14.536			-3.634
177504.000			14.537			-3.634
177605.000			14.537			-3.634
177703.000			14.537			-3.634
177804.000			14.537			-3.634
177904.000			14.537			-3.634
178004.000			14.536			-3.634
178104.000			14.535			-3.634
178205.000			14.536			-3.634
178304.000			14.535			-3.634
178404.000			14.535			-3.634
178505.000			14.536			-3.634
178604.000			14.536			-3.634
178705.000			14.535			-3.634
178803.000			14.534			-3.633
178904.000			14.534			-3.634
179005.000			14.534			-3.634
179104.000			14.534			-3.634
179204.000			14.534			-3.634
179305.000			14.534			-3.633
179404.000			14.534			-3.634
179504.000			14.534			-3.634
179605.000			14.534			-3.634
179703.000			14.533			-3.633
179804.000			14.533			-3.633
179905.000			14.532			-3.633
180004.000			14.531			-3.633
180104.000			14.532			-3.633
180205.000			14.530			-3.633
180304.000			14.531			-3.633
180404.000			14.532			-3.633
180505.000			14.531			-3.633
180603.000			14.530			-3.633
180704.000			14.531			-3.633
180805.000			14.530			-3.632
180904.000			14.530			-3.633
181004.000			14.531			-3.633
181105.000			14.531			-3.633
181204.000			14.530			-3.633
181304.000			14.530			-3.632
181405.000			14.529			-3.632
181503.000			14.529			-3.632
181604.000			14.528			-3.632
181705.000			14.528			-3.632
181804.000			14.528			-3.632
181905.000			14.528			-3.632
182004.000			14.528			-3.632
182104.000			14.527			-3.632
182205.000			14.528			-3.632
182304.000			14.528			-3.632
182403.000			14.527			-3.632
182505.000			14.527			-3.632
182604.000			14.527			-3.632
182704.000			14.526			-3.632
182805.000			14.526			-3.632
182904.000			14.526			-3.632
183004.000			14.526			-3.632
183105.000			14.526			-3.632
183204.000			14.525			-3.631
183303.000			14.524			-3.631
183405.000			14.525			-3.631
183504.000			14.525			-3.631
183604.000			14.525			-3.631
183705.000			14.524			-3.631
183804.000			14.524			-3.631
183904.000			14.524			-3.631
184005.000			14.523			-3.631
184104.000			14.523			-3.631
184203.000			14.522			-3.631
184305.000			14.522			-3.630
184404.000			14.522			-3.630
184504.000			14.522			-3.631
184605.000			14.521			-3.630
184704.000			14.521			-3.630
184804.000			14.521			-3.630
184904.000			14.521			-3.630
185004.000			14.520			-3.630
185103.000			14.520			-3.630
185204.000			14.521			-3.630
185304.000			14.521			-3.630
185405.000			14.521			-3.630
185504.000			14.520			-3.630
185604.000			14.521			-3.630
185705.000			14.520			-3.630
185803.000			14.520			-3.630
185904.000			14.519			-3.630
186004.000			14.519			-3.630
186104.000			14.518			-3.630
186204.000			14.519			-3.630
186305.000			14.519			-3.630
186404.000			14.518			-3.630
186504.000			14.518			-3.629
186605.000			14.517			-3.629
186703.000			14.518			-3.629
186804.000			14.517			-3.629
186904.000			14.517			-3.629
187004.000			14.517			-3.629
187104.000			14.516			-3.629
187205.000			14.516			-3.629
187304.000			14.516			-3.629
187404.000			14.516			-3.629
187505.000			14.516			-3.629
187604.000			14.516			-3.629
187704.000			14.516			-3.629
187804.000			14.515			-3.629
187904.000			14.515			-3.629
188004.000			14.514			-3.628
188105.000			14.514			-3.629
188204.000			14.514			-3.629
188305.000			14.514			-3.629
188404.000			14.513			-3.628
188504.000			14.514			-3.628
188605.000			14.514			-3.628
188703.000			14.513			-3.628
188804.000			14.513			-3.628
188905.000			14.513			-3.628
189004.000			14.512			-3.628
189104.000			14.512			-3.628
189205.000			14.512			-3.628
189304.000			14.511			-3.628
189404.000			14.511			-3.628
189505.000			14.511			-3.628
189603.000			14.511			-3.628
189704.000			14.511			-3.628
189805.000			14.511			-3.628
189904.000			14.511			-3.628
190004.000			14.510			-3.628
190105.000			14.510			-3.628
190204.000			14.510			-3.627
190303.000			14.509			-3.627
190405.000			14.509			-3.627
190503.000			14.509			-3.627
190604.000			14.509			-3.627
190705.000			14.509			-3.627
190804.000			14.509			-3.627
190904.000			14.508			-3.627
191005.000			14.508			-3.627
191104.000			14.507			-3.627
191203.000			14.507			-3.627
191305.000			14.507			-3.627
191404.000			14.507			-3.627
191505.000			14.508			-3.627
191604.000			14.508			-3.627
191704.000			14.507			-3.627
191805.000			14.507			-3.627
191904.000			14.507			-3.627
192004.000			14.507			-3.627
192104.000			14.505			-3.626
192204.000			14.506			-3.626
192303.000			14.506			-3.626
192405.000			14.505			-3.626
192504.000			14.505			-3.626
192604.000			14.505			-3.626
192705.000			14.504			-3.626
192804.000			14.504			-3.626
192904.000			14.504			-3.626
193004.000			14.505			-3.626
193104.000			14.504			-3.626
193204.000			14.503			-3.626
193305.000			14.503			-3.626
193404.000			14.503			-3.626
193504.000			14.503			-3.626
193605.000			14.503			-3.626
193704.000			14.503			-3.626
193804.000			14.503			-3.626
193904.000			14.502			-3.625
194004.000			14.503			-3.626
194104.000			14.503			-3.626
194205.000			14.501			-3.625
194304.000			14.501			-3.625
194404.000			14.502			-3.625
194505.000			14.502			-3.625
194603.000			14.502			-3.625
194705.000			14.501			-3.625
194803.000			14.501			-3.625
194904.000			14.500			-3.625
195005.000			14.501			-3.625
195104.000			14.501			-3.625
195204.000			14.499			-3.625
195305.000			14.499			-3.625
195404.000			14.500			-3.625
195503.000			14.500			-3.625
195605.000			14.499			-3.625
195703.000			14.499			-3.625
195804.000			14.499			-3.625
195905.000			14.499			-3.625
196004.000			14.498			-3.624
196104.000			14.497			-3.624
196205.000			14.498			-3.624
196304.000			14.498			-3.625
196404.000			14.498			-3.625
196505.000			14.497			-3.624
196603.000			14.497			-3.624
196704.000			14.497			-3.624
196805.000			14.496			-3.624
196904.000			14.497			-3.624
197004.000			14.498			-3.624
197105.000			14.496			-3.624
197204.000			14.494			-3.624
197304.000			14.495			-3.624
197405.000			14.495			-3.624
197503.000			14.495			-3.624
197604.000			14.494			-3.624
197704.000			14.495			-3.624
197804.000			14.495			-3.624
197905.000			14.494			-3.624
198004.000			14.494			-3.623
198104.000			14.494			-3.624
198205.000			14.494			-3.624
198304.000			14.494			-3.624
198404.000			14.494			-3.624
198505.000			14.494			-3.623
198603.000			14.493			-3.623
198704.000			14.494			-3.623
198805.000			14.493			-3.623
198904.000			14.493			-3.623
199004.000			14.492			-3.623
199105.000			14.492			-3.623
199204.000			14.492			-3.623
199304.000			14.493			-3.623
199405.000			14.492			-3.623
199503.000			14.493			-3.623
199604.000			14.492			-3.623
199704.000			14.491			-3.623
199804.000			14.491			-3.623
199904.000			14.490			-3.622
200005.000			14.489			-3.622
200104.000			14.491			-3.623
200204.000			14.490			-3.622
200305.000			14.491			-3.623
200404.000			14.490			-3.622
200504.000			14.489			-3.622
200604.000			14.490			-3.622
200704.000			14.489			-3.622
200804.000			14.488			-3.622
200905.000			14.489			-3.622
201004.000			14.488			-3.622
201105.000			14.488			-3.622
201204.000			14.489			-3.622
201304.000			14.488			-3.622
201405.000			14.488			-3.622
201503.000			14.488			-3.622
201604.000			14.488			-3.622
201705.000			14.487			-3.622
201804.000			14.487			-3.622
201904.000			14.487			-3.622
202005.000			14.487			-3.622
202104.000			14.487			-3.622
202204.000			14.486			-3.622
202305.000			14.486			-3.622
202403.000			14.485			-3.621
202504.000			14.485			-3.621
202605.000			14.485			-3.621
202704.000			14.486			-3.621
202804.000			14.485			-3.621
202905.000			14.485			-3.621
203004.000			14.485			-3.621
203103.000			14.485			-3.621
203205.000			14.484			-3.621
203303.000			14.484			-3.621
203404.000			14.484			-3.621
203505.000			14.483			-3.621
203604.000			14.483			-3.621
203704.000			14.484			-3.621
203805.000			14.484			-3.621
203904.000			14.483			-3.621
204003.000			14.482			-3.621
204105.000			14.482			-3.620
204203.000			14.483			-3.621
204305.000			14.482			-3.620
204404.000			14.482			-3.620
204504.000			14.481			-3.620
204605.000			14.482			-3.620
204704.000			14.481			-3.620
204804.000			14.481			-3.620
204904.000			14.482			-3.620
205004.000			14.481			-3.620
205103.000			14.480			-3.620
205205.000			14.480			-3.620
205304.000			14.479			-3.620
205404.000			14.478			-3.620
205505.000			14.479			-3.620
205604.000			14.479			-3.620
205704.000			14.478			-3.620
205804.000			14.479			-3.620
205904.000			14.479			-3.620
206003.000			14.478			-3.620
206105.000			14.478			-3.620
206204.000			14.479			-3.620
206304.000			14.478			-3.620
206405.000			14.477			-3.619
206504.000			14.478			-3.620
206604.000			14.477			-3.619
206704.000			14.477			-3.619
206804.000			14.476			-3.619
206904.000			14.476			-3.619
207005.000			14.476			-3.619
207104.000			14.475			-3.619
207204.000			14.476			-3.619
207305.000			14.475			-3.619
207404.000			14.475			-3.619
207505.000			14.475			-3.619
207603.000			14.474			-3.619
207704.000			14.475			-3.619
207805.000			14.474			-3.618
207904.000			14.475			-3.619
208004.000			14.475			-3.619
208105.000			14.474			-3.619
208204.000			14.474			-3.618
208304.000			14.472			-3.618
208405.000			14.473			-3.618
208503.000			14.472			-3.618
208604.000			14.472			-3.618
208705.000			14.473			-3.618
208804.000			14.473			-3.618
208904.000			14.472			-3.618
209005.000			14.473			-3.618
209104.000			14.473			-3.618
209204.000			14.473			-3.618
209305.000			14.472			-3.618
209403.000			14.472			-3.618
209504.000			14.472			-3.618
209605.000			14.471			-3.618
209704.000			14.471			-3.618
209804.000			14.472			-3.618
209905.000			14.471			-3.618
210004.000			14.471			-3.618
210104.000			14.471			-3.618
210205.000			14.471			-3.618
210303.000			14.471			-3.618
210404.000			14.470			-3.617
210505.000			14.470			-3.617
210604.000			14.469			-3.617
210705.000			14.469			-3.617
210804.000			14.470			-3.617
210904.000			14.469			-3.617
211004.000			14.468			-3.617
211104.000			14.468			-3.617
211203.000			14.469			-3.617
211305.000			14.469			-3.617
211404.000			14.468			-3.617
211504.000			14.468			-3.617
211605.000			14.467			-3.617
211704.000			14.467			-3.617
211804.000			14.468			-3.617
211904.000			14.469			-3.617
212004.000			14.469			-3.617
212104.000			14.468			-3.617
212205.000			14.467			-3.617
212304.000			14.467			-3.617
212404.000			14.468			-3.617
212505.000			14.466			-3.617
212604.000			14.467			-3.617
212704.000			14.466			-3.616
212804.000			14.466			-3.616
212904.000			14.465			-3.616
213004.000			14.465			-3.616
213105.000			14.465			-3.616
213204.000			14.464			-3.616
213304.000			14.464			-3.616
213405.000			14.465			-3.616
213504.000			14.465			-3.616
213604.000			14.464			-3.616
213704.000			14.464			-3.616
213804.000			14.464			-3.616
213905.000			14.464			-3.616
214004.000			14.464			-3.616
214104.000			14.464			-3.616
214205.000			14.464			-3.616
214304.000			14.464			-3.616
214403.000			14.464			-3.616
214505.000			14.463			-3.616
214603.000			14.463			-3.616
214704.000			14.463			-3.616
214805.000			14.463			-3.616
214904.000			14.462			-3.616
215004.000			14.462			-3.615
215105.000			14.462			-3.615
215204.000			14.462			-3.616
215303.000			14.462			-3.616
215405.000			14.461			-3.615
215504.000			14.461			-3.615
215604.000			14.461			-3.615
215705.000			14.461			-3.615
215804.000			14.461			-3.615
215904.000			14.461			-3.615
216005.000			14.460			-3.615
216104.000			14.459			-3.615
216203.000			14.460			-3.615
216305.000			14.460			-3.615
216404.000			14.461			-3.615
216504.000			14.460			-3.615
216605.000			14.459			-3.615
216704.000			14.459			-3.615
216804.000			14.459			-3.615
216904.000			14.459			-3.615
217004.000			14.459			-3.615
217103.000			14.459			-3.615
217204.000			14.458			-3.614
217304.000			14.458			-3.614
217405.000			14.458			-3.614
217504.000			14.459			-3.615
217604.000			14.457			-3.614
217705.000			14.457			-3.614
217803.000			14.457			-3.614
217904.000			14.457			-3.614
218004.000			14.456			-3.614
218104.000			14.456			-3.614
218204.000			14.457			-3.614
218305.000			14.456			-3.614
218404.000			14.456			-3.614
218504.000			14.456			-3.614
218605.000			14.456			-3.614
218703.000			14.456			-3.614
218804.000			14.455			-3.614
218904.000			14.454			-3.614
219004.000			14.455			-3.614
219104.000			14.455			-3.614
219205.000			14.455			-3.614
219304.000			14.455			-3.614
219404.000			14.454			-3.614
219505.000			14.454			-3.614
219603.000			14.454			-3.613
219704.000			14.454			-3.614
219804.000			14.452			-3.613
219904.000			14.452			-3.613
220004.000			14.453			-3.613
220105.000			14.453			-3.613
220204.000			14.453			-3.613
220305.000			14.452			-3.613
220404.000			14.453			-3.613
220503.000			14.452			-3.613
220605.000			14.452			-3.613
220704.000			14.452			-3.613
220804.000			14.452			-3.613
220905.000			14.451			-3.613
221004.000			14.451			-3.613
221104.000			14.451			-3.613
221204.000			14.451			-3.613
221304.000			14.450			-3.612
221403.000			14.450			-3.612
221505.000			14.450			-3.612
221604.000			14.451			-3.613
221704.000			14.450			-3.612
221805.000			14.449			-3.612
221904.000			14.449			-3.612
222004.000			14.449			-3.612
222104.000			14.450			-3.612
222204.000			14.450			-3.612
222303.000			14.449			-3.612
222405.000			14.448			-3.612
222504.000			14.448			-3.612
222604.000			14.448			-3.612
222705.000			14.449			-3.612
222804.000			14.449			-3.612
222904.000			14.448			-3.612
223004.000			14.448			-3.612
223104.000			14.449			-3.612
223204.000			14.448			-3.612
223305.000			14.448			-3.612
223404.000			14.448			-3.612
223505.000			14.447			-3.612
223604.000			14.446			-3.611
223704.000			14.447			-3.612
223805.000			14.447			-3.612
223903.000			14.446			-3.612
224004.000			14.446			-3.612
224105.000			14.446			-3.612
224204.000			14.447			-3.612
224304.000			14.446			-3.612
224405.000			14.446			-3.611
224504.000			14.445			-3.611
224604.000			14.446			-3.611
224705.000			14.445			-3.611
224803.000			14.444			-3.611
224904.000			14.445			-3.611
225005.000			14.445			-3.611
225104.000			14.445			-3.611
225204.000			14.444			-3.611
225305.000			14.444			-3.611
225404.000			14.444			-3.611
225503.000			14.444			-3.611
225605.000			14.444			-3.611
225703.000			14.445			-3.611
225804.000			14.444			-3.611
225905.000			14.442			-3.611
226004.000			14.443			-3.611
226104.000			14.442			-3.611
226205.000			14.442			-3.611
226304.000			14.442			-3.610
226403.000			14.443			-3.611
226505.000			14.443			-3.611
226604.000			14.443			-3.611
226705.000			14.441			-3.610
226804.000			14.441			-3.610
226904.000			14.442			-3.610
227005.000			14.440			-3.610
227104.000			14.440			-3.610
227204.000			14.440			-3.610
227304.000			14.440			-3.610
227404.000			14.441			-3.610
227504.000			14.441			-3.610
227605.000			14.440			-3.610
227704.000			14.439			-3.610
227804.000			14.440			-3.610
227905.000			14.439			-3.610
228004.000			14.439			-3.610
228104.000			14.440			-3.610
228204.000			14.439			-3.610
228304.000			14.439			-3.610
228403.000			14.440			-3.610
228505.000			14.438			-3.610
228604.000			14.438			-3.609
228704.000			14.437			-3.609
228805.000			14.438			-3.609
228904.000			14.438			-3.610
229004.000			14.437			-3.609
229104.000			14.438			-3.609
229204.000			14.436			-3.609
229303.000			14.437			-3.609
229405.000			14.438			-3.609
229504.000			14.437			-3.609
229604.000			14.437			-3.609
229705.000			14.437			-3.609
229804.000			14.436			-3.609
229905.000			14.436			-3.609
230003.000			14.435			-3.609
230104.000			14.435			-3.609
230205.000			14.435			-3.609
230304.000			14.435			-3.609
230404.000			14.435			-3.609
230505.000			14.435			-3.609
230604.000			14.434			-3.608
230704.000			14.434			-3.609
230805.000			14.435			-3.609
230903.000			14.435			-3.609
231004.000			14.434			-3.608
231105.000			14.434			-3.608
231204.000			14.432			-3.608
231304.000			14.432			-3.608
231405.000			14.434			-3.608
231504.000			14.434			-3.608
231603.000			14.434			-3.609
231705.000			14.434			-3.609
231804.000			14.434			-3.608
231904.000			14.433			-3.608
232005.000			14.433			-3.608
232104.000			14.433			-3.608
232204.000			14.432			-3.608
232305.000			14.432			-3.608
232404.000			14.433			-3.608
232503.000			14.433			-3.608
232605.000			14.432			-3.608
232704.000			14.431			-3.608
232804.000			14.431			-3.608
232905.000			14.432			-3.608
233004.000			14.432			-3.608
233105.000			14.432			-3.608
233203.000			14.431			-3.608
233304.000			14.431			-3.608
233404.000			14.431			-3.608
233504.000			14.431			-3.608
233604.000			14.431			-3.608
233705.000			14.431			-3.608
233804.000			14.431			-3.608
233904.000			14.431			-3.608
234005.000			14.431			-3.608
234103.000			14.430			-3.607
234204.000			14.430			-3.607
234305.000			14.430			-3.607
234404.000			14.430			-3.607
234504.000			14.429			-3.607
234605.000			14.429			-3.607
234704.000			14.429			-3.607
234804.000			14.428			-3.607
234905.000			14.428			-3.607
235003.000			14.429			-3.607
235104.000			14.428			-3.607
235205.000			14.427			-3.607
235304.000			14.427			-3.607
235404.000			14.428			-3.607
235505.000			14.427			-3.607
235604.000			14.426			-3.607
235704.000			14.426			-3.607
235805.000			14.426			-3.607
235903.000			14.427			-3.607
236004.000			14.426			-3.607
236105.000			14.426			-3.606
236204.000			14.426			-3.606
236305.000			14.427			-3.607
236404.000			14.426			-3.606
236504.000			14.425			-3.606
236604.000			14.424			-3.606
236704.000			14.424			-3.606
236803.000			14.425			-3.606
236905.000			14.426			-3.606
237004.000			14.425			-3.606
237104.000			14.425			-3.606
237205.000			14.423			-3.606
237304.000			14.423			-3.606
237404.000			14.423			-3.606
237504.000			14.424			-3.606
237604.000			14.423			-3.606
237703.000			14.422			-3.605
237805.000			14.422			-3.606
237904.000			14.422			-3.606
238004.000			14.423			-3.606
238105.000			14.422			-3.605
238204.000			14.422			-3.605
238304.000			14.421			-3.605
238404.000			14.422			-3.605
238504.000			14.422			-3.606
238604.000			14.421			-3.605
238705.000			14.422			-3.605
238804.000			14.422			-3.606
238904.000			14.421			-3.605
239005.000			14.421			-3.605
239104.000			14.420			-3.605
239204.000			14.420			-3.605
239304.000			14.420			-3.605
239404.000			14.419			-3.605
239505.000			14.419			-3.605
239604.000			14.419			-3.605
239704.000			14.419			-3.605
239805.000			14.420			-3.605
239904.000			14.419			-3.605
240004.000			14.420			-3.605
240105.000			14.419			-3.605
240203.000			14.418			-3.604
240304.000			14.418			-3.604
240405.000			14.418			-3.605
240504.000			14.418			-3.605
240604.000			14.417			-3.604
240705.000			14.418			-3.604
240804.000			14.418			-3.605
240904.000			14.417			-3.604
241005.000			14.417			-3.604
241103.000			14.417			-3.604
241204.000			14.417			-3.604
241305.000			14.417			-3.604
241404.000			14.417			-3.604
241504.000			14.416			-3.604
241605.000			14.415			-3.604
241704.000			14.415			-3.604
241803.000			14.416			-3.604
241905.000			14.416			-3.604
242003.000			14.415			-3.604
242104.000			14.415			-3.604
242205.000			14.415			-3.604
242304.000			14.415			-3.604
242404.000			14.414			-3.603
242505.000			14.413			-3.603
242604.000			14.414			-3.604
242703.000			14.415			-3.604
242804.000			14.415			-3.604
242903.000			14.415			-3.604
243005.000			14.414			-3.603
243104.000			14.414			-3.604
243204.000			14.414			-3.604
243305.000			14.415			-3.604
243404.000			14.415			-3.604
243504.000			14.413			-3.603
243604.000			14.412			-3.603
243704.000			14.412			-3.603
243804.000			14.412			-3.603
243905.000			14.412			-3.603
244004.000			14.413			-3.603
244104.000			14.412			-3.603
244205.000			14.412			-3.603
244304.000			14.412			-3.603
244404.000			14.412			-3.603
244504.000			14.411			-3.603
244604.000			14.411			-3.603
244704.000			14.411			-3.603
244805.000			14.411			-3.603
244904.000			14.411			-3.603
245004.000			14.411			-3.603
245105.000			14.411			-3.603
245203.000			14.410			-3.602
245304.000			14.410			-3.603
245405.000			14.410			-3.602
245504.000			14.410			-3.602
245604.000			14.409			-3.602
245705.000			14.409			-3.602
245804.000			14.409			-3.602
245905.000			14.410			-3.602
246004.000			14.408			-3.602
246103.000			14.408			-3.602
246205.000			14.408			-3.602
246304.000			14.407			-3.602
246404.000			14.408			-3.602
246505.000			14.408			-3.602
246604.000			14.409			-3.602
246704.000			14.408			-3.602
246805.000			14.408			-3.602
246904.000			14.408			-3.602
247003.000			14.408			-3.602
247105.000			14.408			-3.602
247204.000			14.408			-3.602
247304.000			14.407			-3.602
247405.000			14.408			-3.602
247504.000			14.407			-3.602
247604.000			14.406			-3.602
247705.000			14.406			-3.602
247804.000			14.406			-3.601
247903.000			14.406			-3.602
248005.000			14.406			-3.601
248104.000			14.406			-3.601
248204.000			14.406			-3.601
248305.000			14.406			-3.601
248404.000			14.405			-3.601
248504.000			14.404			-3.601
248604.000			14.404			-3.601
248704.000			14.403			-3.601
248803.000			14.404			-3.601
248905.000			14.403			-3.601
249004.000			14.404			-3.601
249105.000			14.404			-3.601
249204.000			14.404			-3.601
249304.000			14.404			-3.601
249405.000			14.404			-3.601
249503.000			14.403			-3.601
249604.000			14.403			-3.601
249704.000			14.403			-3.601
249804.000			14.402			-3.601
249904.000			14.401			-3.600
250005.000			14.402			-3.600
250104.000			14.403			-3.601
250204.000			14.403			-3.601
250305.000			14.402			-3.600
250403.000			14.401			-3.600
250504.000			14.400			-3.600
250605.000			14.400			-3.600
250704.000			14.401			-3.600
250804.000			14.401			-3.600
250905.000			14.401			-3.600
251004.000			14.401			-3.600
251104.000			14.401			-3.600
251205.000			14.400			-3.600
251303.000			14.399			-3.600
251404.000			14.399			-3.600
251505.000			14.398			-3.600
251604.000			14.400			-3.600
251704.000			14.400			-3.600
251805.000			14.400			-3.600
251904.000			14.399			-3.600
252004.000			14.400			-3.600
252105.000			14.399			-3.600
252203.000			14.398			-3.600
252305.000			14.398			-3.599
252404.000			14.398			-3.600
252504.000			14.398			-3.600
252605.000			14.398			-3.600
252704.000			14.398			-3.599
252804.000			14.397			-3.599
252905.000			14.398			-3.599
253004.000			14.397			-3.599
253103.000			14.398			-3.599
253205.000			14.398			-3.600
253304.000			14.396			-3.599
253404.000			14.397			-3.599
253505.000			14.397			-3.599
253604.000			14.397			-3.599
253704.000			14.395			-3.599
253805.000			14.395			-3.599
253904.000			14.396			-3.599
254003.000			14.397			-3.599
254105.000			14.395			-3.599
254204.000			14.396			-3.599
254304.000			14.396			-3.599
254405.000			14.396			-3.599
254504.000			14.395			-3.599
254604.000			14.395			-3.599
254705.000			14.395			-3.599
254804.000			14.395			-3.599
254903.000			14.396			-3.599
255005.000			14.395			-3.599
255103.000			14.396			-3.599
255204.000			14.396			-3.599
255305.000			14.396			-3.599
255404.000			14.394			-3.599
255505.000			14.395			-3.599
255604.000			14.395			-3.599
255704.000			14.394			-3.599
255804.000			14.394			-3.598
255904.000			14.394			-3.598
256003.000			14.395			-3.599
256105.000			14.395			-3.599
256204.000			14.394			-3.599
256304.000			14.395			-3.599
256405.000			14.396			-3.599
256504.000			14.395			-3.599
256604.000			14.394			-3.598
256704.000			14.395			-3.599
256804.000			14.396			-3.599
256903.000			14.394			-3.599
257005.000			14.395			-3.599
257104.000			14.394			-3.599
257204.000			14.395			-3.599
257305.000			14.395			-3.599
257404.000			14.394			-3.599
257504.000			14.394			-3.598
257604.000			14.393			-3.598
257704.000			14.393			-3.598
257803.000			14.392			-3.598
257905.000			14.392			-3.598
258004.000			14.393			-3.598
258104.000			14.393			-3.598
258205.000			14.393			-3.598
258304.000			14.393			-3.598
258404.000			14.390			-3.598
258504.000			14.390			-3.597
258604.000			14.390			-3.598
258703.000			14.392			-3.598
258804.000			14.391			-3.598
258904.000			14.390			-3.598
259005.000			14.391			-3.598
259104.000			14.390			-3.598
259204.000			14.389			-3.597
259305.000			14.389			-3.597
259404.000			14.388			-3.597
259504.000			14.388			-3.597
259604.000			14.388			-3.597
259704.000			14.388			-3.597
259804.000			14.389			-3.597
259905.000			14.389			-3.597
260004.000			14.389			-3.597
260104.000			14.388			-3.597
260205.000			14.388			-3.597
260304.000			14.387			-3.597
260404.000			14.387			-3.597
260504.000			14.386			-3.597
260604.000			14.387			-3.597
260703.000			14.386			-3.597
260805.000			14.386			-3.597
260904.000			14.387			-3.597
261004.000			14.386			-3.597
261105.000			14.386			-3.596
261204.000			14.387			-3.597
261304.000			14.385			-3.596
261404.000			14.385			-3.596
261504.000			14.386			-3.596
261603.000			14.385			-3.596
261705.000			14.385			-3.596
261804.000			14.385			-3.596
261905.000			14.384			-3.596
262004.000			14.384			-3.596
262104.000			14.384			-3.596
262205.000			14.384			-3.596
262303.000			14.384			-3.596
262404.000			14.385			-3.596
262505.000			14.385			-3.596
262604.000			14.384			-3.596
262704.000			14.383			-3.596
262805.000			14.383			-3.596
262904.000			14.383			-3.596
263004.000			14.383			-3.596
263105.000			14.383			-3.596
263203.000			14.382			-3.596
263304.000			14.382			-3.595
263405.000			14.382			-3.596
263504.000			14.382			-3.595
263604.000			14.382			-3.596
263705.000			14.382			-3.595
263804.000			14.382			-3.595
263904.000			14.382			-3.595
264005.000			14.381			-3.595
264103.000			14.380			-3.595
264204.000			14.382			-3.595
264305.000			14.382			-3.595
264404.000			14.380			-3.595
264504.000			14.380			-3.595
264605.000			14.380			-3.595
264704.000			14.380			-3.595
264804.000			14.380			-3.595
264905.000			14.380			-3.595
265003.000			14.379			-3.595
265105.000			14.379			-3.595
265204.000			14.379			-3.595
265304.000			14.378			-3.595
265405.000			14.379			-3.595
265504.000			14.379			-3.595
265604.000			14.380			-3.595
265705.000			14.378			-3.595
265804.000			14.378			-3.595
265903.000			14.377			-3.594
266005.000			14.377			-3.594
266104.000			14.378			-3.594
266204.000			14.377			-3.594
266305.000			14.378			-3.595
266404.000			14.377			-3.594
266504.000			14.378			-3.594
266605.000			14.378			-3.595
266704.000			14.377			-3.594
266803.000			14.377			-3.594
266905.000			14.377			-3.594
267004.000			14.376			-3.594
267104.000			14.376			-3.594
267205.000			14.376			-3.594
267304.000			14.375			-3.594
267404.000			14.376			-3.594
267505.000			14.375			-3.594
267604.000			14.374			-3.594
267703.000			14.375			-3.594
267805.000			14.376			-3.594
267904.000			14.376			-3.594
268004.000			14.375			-3.594
268105.000			14.375			-3.594
268204.000			14.375			-3.594
268305.000			14.374			-3.594
268404.000			14.375			-3.594
268504.000			14.374			-3.593
268604.000			14.374			-3.593
268704.000			14.374			-3.593
268804.000			14.374			-3.593
268905.000			14.374			-3.594
269004.000			14.374			-3.594
269104.000			14.374			-3.593
269205.000			14.374			-3.594
269304.000			14.374			-3.593
269404.000			14.373			-3.593
269504.000			14.373			-3.593
269604.000			14.373			-3.593
269704.000			14.372			-3.593
269805.000			14.373			-3.593
269904.000			14.373			-3.593
270004.000			14.372			-3.593
270105.000			14.372			-3.593
270204.000			14.372			-3.593
270304.000			14.372			-3.593
270404.000			14.372			-3.593
270504.000			14.372			-3.593
270604.000			14.371			-3.593
270705.000			14.371			-3.593
270804.000			14.371			-3.593
270904.000			14.372			-3.593
271005.000			14.371			-3.593
271104.000			14.370			-3.593
271204.000			14.370			-3.593
271304.000			14.369			-3.592
271404.000			14.369			-3.592
271505.000			14.371			-3.593
271604.000			14.371			-3.593
271704.000			14.370			-3.592
271805.000			14.369			-3.592
271904.000			14.369			-3.592
272004.000			14.370			-3.593
272105.000			14.370			-3.592
272203.000			14.369			-3.592
272304.000			14.369			-3.592
272405.000			14.369			-3.592
272504.000			14.369			-3.592
272604.000			14.369			-3.592
272705.000			14.369			-3.592
272804.000			14.369			-3.592
272904.000			14.367			-3.592
273005.000			14.367			-3.592
273103.000			14.367			-3.592
273204.000			14.368			-3.592
273305.000			14.368			-3.592
273404.000			14.368			-3.592
273504.000			14.368			-3.592
273605.000			14.367			-3.592
273704.000			14.366			-3.591
273804.000			14.366			-3.592
273905.000			14.367			-3.592
274003.000			14.366			-3.592
274104.000			14.365			-3.591
274205.000			14.365			-3.591
274304.000			14.366			-3.591
274404.000			14.366			-3.592
274505.000			14.367			-3.592
274604.000			14.365			-3.591
274703.000			14.365			-3.591
274804.000			14.366			-3.591
274903.000			14.366			-3.591
275005.000			14.365			-3.591
275104.000			14.365			-3.591
275204.000			14.364			-3.591
275305.000			14.365			-3.591
275404.000			14.364			-3.591
275504.000			14.364			-3.591
275604.000			14.363			-3.591
275704.000			14.363			-3.591
275803.000			14.364			-3.591
275905.000			14.364			-3.591
276004.000			14.364			-3.591
276104.000			14.364			-3.591
276205.000			14.363			-3.591
276304.000			14.363			-3.591
276404.000			14.364			-3.591
276504.000			14.363			-3.591
276604.000			14.363			-3.591
276703.000			14.363			-3.591
276805.000			14.363			-3.591
276904.000			14.363			-3.591
277004.000			14.363			-3.591
277105.000			14.363			-3.591
277204.000			14.362			-3.591
277304.000			14.362			-3.590
277404.000			14.362			-3.590
277504.000			14.363			-3.591
277603.000			14.362			-3.591
277705.000			14.361			-3.590
277804.000			14.361			-3.590
277905.000			14.361			-3.590
278004.000			14.361			-3.590
278104.000			14.360			-3.590
278205.000			14.360			-3.590
278303.000			14.360			-3.590
278404.000			14.361			-3.590
278505.000			14.360			-3.590
278604.000			14.361			-3.590
278704.000			14.360			-3.590
278805.000			14.360			-3.590
278904.000			14.360			-3.590
279004.000			14.359			-3.590
279105.000			14.359			-3.590
279203.000			14.359			-3.590
279304.000			14.359			-3.590
279405.000			14.359			-3.590
279504.000			14.358			-3.590
279604.000			14.358			-3.589
279705.000			14.359			-3.590
279804.000			14.359			-3.590
279904.000			14.358			-3.589
280005.000			14.358			-3.589
280103.000			14.359			-3.590
280204.000			14.357			-3.589
280304.000			14.356			-3.589
280404.000			14.357			-3.589
280504.000			14.357			-3.589
280605.000			14.356			-3.589
280704.000			14.357			-3.589
280804.000			14.357			-3.589
280905.000			14.356			-3.589
281003.000			14.355			-3.589
281105.000			14.356			-3.589
281203.000			14.356			-3.589
281304.000			14.357			-3.589
281405.000			14.356			-3.589
281504.000			14.356			-3.589
281604.000			14.357			-3.589
281705.000			14.355			-3.589
281804.000			14.355			-3.589
281903.000			14.354			-3.589
282005.000			14.355			-3.589
282103.000			14.355			-3.589
282204.000			14.354			-3.589
282305.000			14.354			-3.589
282404.000			14.354			-3.589
282504.000			14.354			-3.589
282605.000			14.354			-3.588
282704.000			14.353			-3.588
282803.000			14.354			-3.588
282905.000			14.354			-3.589
283003.000			14.354			-3.588
283104.000			14.352			-3.588
283205.000			14.352			-3.588
283304.000			14.353			-3.588
283404.000			14.353			-3.588
283505.000			14.352			-3.588
283604.000			14.352			-3.588
283703.000			14.352			-3.588
283805.000			14.353			-3.588
283904.000			14.352			-3.588
284004.000			14.352			-3.588
284105.000			14.352			-3.588
284204.000			14.351			-3.588
284305.000			14.351			-3.588
284404.000			14.350			-3.587
284504.000			14.351			-3.588
284604.000			14.351			-3.588
284704.000			14.351			-3.588
284804.000			14.350			-3.588
284905.000			14.351			-3.588
285004.000			14.351			-3.588
285104.000			14.350			-3.588
285205.000			14.350			-3.587
285304.000			14.350			-3.587
285404.000			14.350			-3.588
285504.000			14.350			-3.587
285604.000			14.351			-3.588
285704.000			14.350			-3.588
285805.000			14.349			-3.587
285904.000			14.349			-3.587
286004.000			14.348			-3.587
286105.000			14.348			-3.587
286204.000			14.348			-3.587
286304.000			14.347			-3.587
286404.000			14.348			-3.587
286504.000			14.349			-3.587
286604.000			14.349			-3.587
286705.000			14.349			-3.587
286804.000			14.349			-3.587
286904.000			14.349			-3.587
287005.000			14.347			-3.587
287104.000			14.347			-3.587
287204.000			14.348			-3.587
287304.000			14.348			-3.587
287404.000			14.348			-3.587
287505.000			14.347			-3.587
287604.000			14.347			-3.587
287704.000			14.347			-3.587
287805.000			14.346			-3.586
287904.000			14.346			-3.587
288004.000			14.346			-3.587
288105.000			14.346			-3.587
288203.000			14.346			-3.586
288304.000			14.345			-3.586
288405.000			14.345			-3.586
288504.000			14.345			-3.586
288604.000			14.346			-3.586
288705.000			14.345			-3.586
288804.000			14.344			-3.586
288904.000			14.345			-3.586
289005.000			14.345			-3.586
289103.000			14.344			-3.586
289204.000			14.345			-3.586
289305.000			14.345			-3.586
289404.000			14.344			-3.586
289504.000			14.344			-3.586
289605.000			14.345			-3.586
289704.000			14.344			-3.586
289804.000			14.344			-3.586
289905.000			14.343			-3.586
290003.000			14.342			-3.586
290104.000			14.343			-3.586
290205.000			14.343			-3.586
290304.000			14.343			-3.586
290404.000			14.343			-3.586
290505.000			14.343			-3.586
290604.000			14.342			-3.586
290705.000			14.343			-3.586
290804.000			14.342			-3.586
290903.000			14.342			-3.586
291005.000			14.342			-3.585
291104.000			14.342			-3.585
291204.000			14.341			-3.585
291305.000			14.342			-3.585
291404.000			14.343			-3.586
291504.000			14.343			-3.586
291604.000			14.341			-3.585
291704.000			14.341			-3.585
291803.000			14.341			-3.585
291905.000			14.341			-3.585
292004.000			14.340			-3.585
292104.000			14.340			-3.585
292205.000			14.341			-3.585
292304.000			14.339			-3.585
292404.000			14.339			-3.585
292504.000			14.340			-3.585
292604.000			14.341			-3.585
292703.000			14.340			-3.585
292805.000			14.339			-3.585
292904.000			14.340			-3.585
293004.000			14.339			-3.585
293105.000			14.339			-3.585
293204.000			14.339			-3.585
293304.000			14.339			-3.585
293404.000			14.339			-3.585
293504.000			14.339			-3.585
293603.000			14.339			-3.585
293705.000			14.339			-3.585
293804.000			14.339			-3.585
293905.000			14.339			-3.585
294004.000			14.338			-3.584
294104.000			14.338			-3.584
294205.000			14.338			-3.584
294303.000			14.338			-3.585
294404.000			14.339			-3.585
294505.000			14.338			-3.585
294604.000			14.338			-3.584
294704.000			14.337			-3.584
294805.000			14.338			-3.585
294904.000			14.338			-3.584
295004.000			14.338			-3.584
295105.000			14.337			-3.584
295203.000			14.337			-3.584
295304.000			14.336			-3.584
295405.000			14.336			-3.584
295504.000			14.336			-3.584
295604.000			14.336			-3.584
295705.000			14.336			-3.584
295804.000			14.336			-3.584
295904.000			14.335			-3.584
296005.000			14.336			-3.584
296103.000			14.335			-3.584
296204.000			14.335			-3.584
296305.000			14.335			-3.584
296404.000			14.335			-3.584
296504.000			14.334			-3.583
296605.000			14.335			-3.584
296704.000			14.334			-3.584
296804.000			14.334			-3.584
296905.000			14.334			-3.584
297003.000			14.334			-3.584
297105.000			14.333			-3.583
297204.000			14.333			-3.583
297304.000			14.334			-3.583
297405.000			14.334			-3.583
297504.000			14.333			-3.583
297604.000			14.332			-3.583
297705.000			14.333			-3.583
297804.000			14.333			-3.583
297903.000			14.333			-3.583
298005.000			14.334			-3.583
298104.000			14.333			-3.583
298204.000			14.333			-3.583
298305.000			14.332			-3.583
298404.000			14.332			-3.583
298504.000			14.333			-3.583
298605.000			14.333			-3.583
298704.000			14.332			-3.583
298803.000			14.331			-3.583
298905.000			14.332			-3.583
299004.000			14.331			-3.583
299104.000			14.331			-3.583
299205.000			14.332			-3.583
299304.000			14.331			-3.583
299404.000			14.331			-3.583
299505.000			14.331			-3.583
299604.000			14.330			-3.583
299703.000			14.331			-3.583
299805.000			14.331			-3.583
299904.000			14.331			-3.583
