# Acquired on 30/01/2024 14:56:21 
# SPIDER: Creep_-11mm_HM077x145x38AB-1
# CREEP MEASUREMENT

# time [ms]		force [N]		stiffness [N/mm]
0.000			33.419			-3.038
104.000			33.911			-3.083
205.000			34.011			-3.092
303.000			33.756			-3.069
404.000			33.670			-3.061
505.000			33.600			-3.055
604.000			33.537			-3.049
704.000			33.482			-3.044
804.000			33.434			-3.039
904.000			33.389			-3.035
1004.000			33.309			-3.028
1105.000			33.275			-3.025
1204.000			33.241			-3.022
1304.000			33.209			-3.019
1405.000			33.180			-3.016
1503.000			33.153			-3.014
1604.000			33.126			-3.011
1705.000			33.077			-3.007
1804.000			33.053			-3.005
1904.000			33.030			-3.003
2003.000			33.009			-3.001
2104.000			32.988			-2.999
2205.000			32.968			-2.997
2304.000			32.949			-2.995
2404.000			32.930			-2.994
2505.000			32.896			-2.991
2604.000			32.878			-2.989
2703.000			32.861			-2.987
2805.000			32.845			-2.986
2904.000			32.829			-2.984
3004.000			32.812			-2.983
3105.000			32.798			-2.982
3204.000			32.770			-2.979
3304.000			32.757			-2.978
3404.000			32.743			-2.977
3504.000			32.731			-2.976
3604.000			32.718			-2.974
3705.000			32.706			-2.973
3804.000			32.692			-2.972
3903.000			32.668			-2.970
4005.000			32.656			-2.969
4104.000			32.645			-2.968
4204.000			32.633			-2.967
4305.000			32.623			-2.966
4404.000			32.613			-2.965
4504.000			32.603			-2.964
4604.000			32.580			-2.962
4704.000			32.569			-2.961
4804.000			32.561			-2.960
4905.000			32.551			-2.959
5004.000			32.540			-2.958
5103.000			32.531			-2.957
5205.000			32.523			-2.957
5304.000			32.512			-2.956
5405.000			32.494			-2.954
5504.000			32.485			-2.953
5604.000			32.477			-2.952
5705.000			32.469			-2.952
5803.000			32.460			-2.951
5904.000			32.452			-2.950
6005.000			32.444			-2.949
6104.000			32.428			-2.948
6204.000			32.420			-2.947
6304.000			32.413			-2.947
6404.000			32.406			-2.946
6504.000			32.398			-2.945
6605.000			32.390			-2.945
6704.000			32.382			-2.944
6804.000			32.367			-2.942
6905.000			32.360			-2.942
7003.000			32.354			-2.941
7104.000			32.347			-2.941
7205.000			32.339			-2.940
7304.000			32.332			-2.939
7404.000			32.326			-2.939
7505.000			32.312			-2.937
7604.000			32.306			-2.937
7703.000			32.301			-2.936
7805.000			32.295			-2.936
7904.000			32.287			-2.935
8004.000			32.280			-2.935
8105.000			32.274			-2.934
8203.000			32.269			-2.934
8304.000			32.257			-2.932
8405.000			32.251			-2.932
8504.000			32.245			-2.931
8605.000			32.239			-2.931
8704.000			32.233			-2.930
8804.000			32.227			-2.930
8904.000			32.221			-2.929
9004.000			32.210			-2.928
9104.000			32.203			-2.928
9205.000			32.198			-2.927
9304.000			32.193			-2.927
9403.000			32.188			-2.926
9505.000			32.183			-2.926
9604.000			32.179			-2.925
9704.000			32.165			-2.924
9805.000			32.161			-2.924
9904.000			32.157			-2.923
10004.000			32.152			-2.923
10104.000			32.146			-2.922
10204.000			32.140			-2.922
10304.000			32.135			-2.921
10405.000			32.126			-2.921
10504.000			32.121			-2.920
10603.000			32.117			-2.920
10705.000			32.112			-2.919
10804.000			32.107			-2.919
10904.000			32.102			-2.918
11005.000			32.097			-2.918
11104.000			32.093			-2.918
11204.000			32.083			-2.917
11304.000			32.078			-2.916
11404.000			32.074			-2.916
11504.000			32.069			-2.915
11604.000			32.064			-2.915
11704.000			32.060			-2.915
11805.000			32.055			-2.914
11904.000			32.047			-2.913
12003.000			32.043			-2.913
12105.000			32.038			-2.913
12204.000			32.033			-2.912
12304.000			32.029			-2.912
12405.000			32.025			-2.911
12503.000			32.021			-2.911
12604.000			32.012			-2.910
12705.000			32.008			-2.910
12804.000			32.004			-2.909
12904.000			32.000			-2.909
13005.000			31.995			-2.909
13104.000			31.991			-2.908
13203.000			31.988			-2.908
13305.000			31.980			-2.907
13404.000			31.977			-2.907
13504.000			31.972			-2.907
13605.000			31.968			-2.906
13704.000			31.964			-2.906
13804.000			31.961			-2.906
13904.000			31.958			-2.905
14004.000			31.951			-2.905
14104.000			31.947			-2.904
14205.000			31.942			-2.904
14304.000			31.938			-2.903
14404.000			31.935			-2.903
14505.000			31.930			-2.903
14603.000			31.928			-2.903
14704.000			31.925			-2.902
14805.000			31.918			-2.902
14904.000			31.913			-2.901
15005.000			31.910			-2.901
15104.000			31.907			-2.901
15204.000			31.903			-2.900
15304.000			31.900			-2.900
15404.000			31.895			-2.900
15504.000			31.888			-2.899
15605.000			31.885			-2.899
15704.000			31.882			-2.898
15804.000			31.880			-2.898
15905.000			31.876			-2.898
16003.000			31.872			-2.897
16104.000			31.869			-2.897
16205.000			31.864			-2.897
16304.000			31.860			-2.896
16404.000			31.856			-2.896
16505.000			31.852			-2.896
16604.000			31.849			-2.895
16703.000			31.845			-2.895
16805.000			31.842			-2.895
16904.000			31.835			-2.894
17004.000			31.831			-2.894
17105.000			31.830			-2.894
17203.000			31.827			-2.893
17304.000			31.823			-2.893
17405.000			31.819			-2.893
17504.000			31.816			-2.892
17604.000			31.814			-2.892
17705.000			31.808			-2.892
17804.000			31.804			-2.891
17903.000			31.800			-2.891
18005.000			31.798			-2.891
18104.000			31.796			-2.891
18205.000			31.793			-2.890
18304.000			31.789			-2.890
18404.000			31.784			-2.889
18505.000			31.780			-2.889
18603.000			31.778			-2.889
18704.000			31.775			-2.889
18805.000			31.773			-2.888
18904.000			31.769			-2.888
19004.000			31.766			-2.888
19105.000			31.761			-2.887
19204.000			31.758			-2.887
19303.000			31.756			-2.887
19405.000			31.752			-2.887
19504.000			31.749			-2.886
19604.000			31.747			-2.886
19705.000			31.744			-2.886
19804.000			31.738			-2.885
19904.000			31.734			-2.885
20004.000			31.732			-2.885
20104.000			31.730			-2.885
20204.000			31.728			-2.884
20305.000			31.725			-2.884
20404.000			31.722			-2.884
20504.000			31.718			-2.883
20605.000			31.713			-2.883
20703.000			31.711			-2.883
20804.000			31.708			-2.883
20905.000			31.706			-2.882
21004.000			31.703			-2.882
21104.000			31.701			-2.882
21204.000			31.698			-2.882
21304.000			31.693			-2.881
21403.000			31.690			-2.881
21504.000			31.688			-2.881
21604.000			31.686			-2.881
21705.000			31.684			-2.880
21804.000			31.681			-2.880
21903.000			31.678			-2.880
22005.000			31.674			-2.879
22104.000			31.671			-2.879
22204.000			31.668			-2.879
22305.000			31.665			-2.879
22404.000			31.663			-2.878
22504.000			31.660			-2.878
22604.000			31.659			-2.878
22704.000			31.654			-2.878
22804.000			31.651			-2.877
22905.000			31.647			-2.877
23004.000			31.645			-2.877
23104.000			31.644			-2.877
23205.000			31.642			-2.877
23303.000			31.639			-2.876
23404.000			31.634			-2.876
23505.000			31.632			-2.876
23604.000			31.630			-2.875
23704.000			31.627			-2.875
23805.000			31.625			-2.875
23904.000			31.623			-2.875
24003.000			31.621			-2.875
24105.000			31.619			-2.874
24204.000			31.613			-2.874
24304.000			31.611			-2.874
24405.000			31.609			-2.874
24504.000			31.606			-2.873
24605.000			31.605			-2.873
24703.000			31.603			-2.873
24804.000			31.600			-2.873
24905.000			31.596			-2.872
25004.000			31.594			-2.872
25104.000			31.591			-2.872
25205.000			31.589			-2.872
25304.000			31.587			-2.872
25403.000			31.584			-2.871
25505.000			31.583			-2.871
25604.000			31.578			-2.871
25704.000			31.577			-2.871
25805.000			31.574			-2.870
25903.000			31.571			-2.870
26004.000			31.570			-2.870
26105.000			31.567			-2.870
26204.000			31.565			-2.870
26304.000			31.562			-2.869
26405.000			31.560			-2.869
26504.000			31.558			-2.869
26603.000			31.555			-2.869
26705.000			31.554			-2.869
26804.000			31.552			-2.868
26904.000			31.550			-2.868
27005.000			31.547			-2.868
27104.000			31.542			-2.867
27204.000			31.542			-2.867
27304.000			31.540			-2.867
27404.000			31.537			-2.867
27504.000			31.535			-2.867
27604.000			31.534			-2.867
27704.000			31.532			-2.867
27805.000			31.526			-2.866
27904.000			31.525			-2.866
28003.000			31.524			-2.866
28105.000			31.522			-2.866
28204.000			31.519			-2.865
28304.000			31.517			-2.865
28405.000			31.516			-2.865
28504.000			31.512			-2.865
28604.000			31.510			-2.865
28704.000			31.508			-2.864
28804.000			31.506			-2.864
28904.000			31.505			-2.864
29005.000			31.503			-2.864
29104.000			31.499			-2.864
29203.000			31.498			-2.863
29305.000			31.495			-2.863
29404.000			31.493			-2.863
29504.000			31.491			-2.863
29605.000			31.489			-2.863
29704.000			31.486			-2.862
29804.000			31.485			-2.862
29904.000			31.481			-2.862
30004.000			31.479			-2.862
30103.000			31.477			-2.862
30205.000			31.476			-2.861
30304.000			31.474			-2.861
30404.000			31.472			-2.861
30505.000			31.470			-2.861
30603.000			31.468			-2.861
30704.000			31.465			-2.860
30805.000			31.463			-2.860
30904.000			31.460			-2.860
31005.000			31.458			-2.860
31104.000			31.457			-2.860
31204.000			31.455			-2.860
31304.000			31.453			-2.859
31404.000			31.449			-2.859
31504.000			31.448			-2.859
31605.000			31.448			-2.859
31704.000			31.446			-2.859
31804.000			31.444			-2.859
31905.000			31.443			-2.858
32003.000			31.441			-2.858
32104.000			31.437			-2.858
32205.000			31.434			-2.858
32304.000			31.432			-2.857
32404.000			31.430			-2.857
32504.000			31.429			-2.857
32604.000			31.428			-2.857
32704.000			31.426			-2.857
32805.000			31.423			-2.857
32904.000			31.421			-2.856
33004.000			31.419			-2.856
33105.000			31.417			-2.856
33203.000			31.415			-2.856
33304.000			31.414			-2.856
33405.000			31.412			-2.856
33504.000			31.410			-2.855
33604.000			31.407			-2.855
33705.000			31.405			-2.855
33804.000			31.403			-2.855
33903.000			31.402			-2.855
34005.000			31.401			-2.855
34104.000			31.400			-2.855
34205.000			31.397			-2.854
34304.000			31.393			-2.854
34403.000			31.392			-2.854
34505.000			31.390			-2.854
34604.000			31.388			-2.853
34704.000			31.388			-2.853
34805.000			31.385			-2.853
34904.000			31.384			-2.853
35004.000			31.380			-2.853
35104.000			31.379			-2.853
35204.000			31.377			-2.852
35304.000			31.376			-2.852
35405.000			31.374			-2.852
35504.000			31.372			-2.852
35604.000			31.372			-2.852
35705.000			31.368			-2.852
35803.000			31.366			-2.851
35904.000			31.364			-2.851
36005.000			31.363			-2.851
36104.000			31.361			-2.851
36204.000			31.359			-2.851
36305.000			31.357			-2.851
36404.000			31.355			-2.850
36503.000			31.353			-2.850
36605.000			31.352			-2.850
36704.000			31.350			-2.850
36804.000			31.347			-2.850
36905.000			31.346			-2.850
37004.000			31.344			-2.849
37104.000			31.344			-2.849
37203.000			31.341			-2.849
37304.000			31.339			-2.849
37405.000			31.338			-2.849
37504.000			31.337			-2.849
37604.000			31.334			-2.849
37704.000			31.333			-2.848
37804.000			31.331			-2.848
37903.000			31.329			-2.848
38005.000			31.328			-2.848
38104.000			31.326			-2.848
38204.000			31.325			-2.848
38305.000			31.323			-2.848
38403.000			31.321			-2.847
38504.000			31.319			-2.847
38605.000			31.317			-2.847
38704.000			31.316			-2.847
38804.000			31.314			-2.847
38905.000			31.314			-2.847
39004.000			31.311			-2.846
39103.000			31.310			-2.846
39205.000			31.308			-2.846
39304.000			31.305			-2.846
39404.000			31.304			-2.846
39505.000			31.303			-2.846
39604.000			31.301			-2.846
39704.000			31.299			-2.845
39804.000			31.297			-2.845
39904.000			31.297			-2.845
40004.000			31.294			-2.845
40105.000			31.291			-2.845
40204.000			31.290			-2.845
40303.000			31.289			-2.844
40405.000			31.287			-2.844
40504.000			31.287			-2.844
40605.000			31.286			-2.844
40704.000			31.283			-2.844
40804.000			31.280			-2.844
40905.000			31.280			-2.844
41003.000			31.278			-2.843
41104.000			31.277			-2.843
41205.000			31.275			-2.843
41304.000			31.273			-2.843
41404.000			31.271			-2.843
41505.000			31.268			-2.843
41604.000			31.268			-2.843
41703.000			31.266			-2.842
41805.000			31.265			-2.842
41904.000			31.264			-2.842
42004.000			31.262			-2.842
42105.000			31.260			-2.842
42204.000			31.258			-2.842
42304.000			31.258			-2.842
42404.000			31.257			-2.842
42504.000			31.254			-2.841
42604.000			31.253			-2.841
42705.000			31.252			-2.841
42804.000			31.250			-2.841
42903.000			31.248			-2.841
43005.000			31.247			-2.841
43104.000			31.246			-2.841
43204.000			31.245			-2.840
43305.000			31.242			-2.840
43404.000			31.241			-2.840
43504.000			31.240			-2.840
43604.000			31.236			-2.840
43704.000			31.235			-2.840
43805.000			31.234			-2.839
43904.000			31.233			-2.839
44004.000			31.232			-2.839
44105.000			31.230			-2.839
44204.000			31.228			-2.839
44303.000			31.228			-2.839
44405.000			31.225			-2.839
44504.000			31.224			-2.839
44604.000			31.222			-2.838
44705.000			31.222			-2.838
44804.000			31.220			-2.838
44904.000			31.219			-2.838
45004.000			31.218			-2.838
45104.000			31.215			-2.838
45204.000			31.213			-2.838
45305.000			31.212			-2.837
45404.000			31.211			-2.837
45503.000			31.211			-2.837
45605.000			31.209			-2.837
45704.000			31.207			-2.837
45804.000			31.205			-2.837
45905.000			31.203			-2.837
46004.000			31.202			-2.837
46104.000			31.201			-2.836
46204.000			31.201			-2.836
46304.000			31.199			-2.836
46404.000			31.198			-2.836
46505.000			31.195			-2.836
46604.000			31.194			-2.836
46704.000			31.193			-2.836
46805.000			31.191			-2.836
46903.000			31.190			-2.835
47005.000			31.189			-2.835
47104.000			31.187			-2.835
47204.000			31.184			-2.835
47305.000			31.184			-2.835
47404.000			31.182			-2.835
47504.000			31.181			-2.835
47604.000			31.180			-2.835
47704.000			31.178			-2.834
47804.000			31.177			-2.834
47905.000			31.177			-2.834
48004.000			31.174			-2.834
48104.000			31.173			-2.834
48205.000			31.171			-2.834
48303.000			31.169			-2.834
48404.000			31.168			-2.833
48505.000			31.169			-2.834
48604.000			31.166			-2.833
48704.000			31.165			-2.833
48805.000			31.163			-2.833
48904.000			31.161			-2.833
49003.000			31.159			-2.833
49105.000			31.158			-2.833
49204.000			31.156			-2.832
49304.000			31.155			-2.832
49405.000			31.154			-2.832
49503.000			31.152			-2.832
49604.000			31.151			-2.832
49705.000			31.150			-2.832
49804.000			31.149			-2.832
49904.000			31.147			-2.832
50004.000			31.146			-2.831
50104.000			31.145			-2.831
50203.000			31.144			-2.831
50304.000			31.143			-2.831
50404.000			31.141			-2.831
50505.000			31.140			-2.831
50604.000			31.138			-2.831
50704.000			31.137			-2.831
50805.000			31.135			-2.830
50903.000			31.134			-2.830
51004.000			31.132			-2.830
51105.000			31.132			-2.830
51204.000			31.131			-2.830
51304.000			31.130			-2.830
51404.000			31.129			-2.830
51504.000			31.127			-2.830
51604.000			31.124			-2.829
51705.000			31.123			-2.829
51804.000			31.123			-2.829
51904.000			31.121			-2.829
52005.000			31.120			-2.829
52103.000			31.119			-2.829
52204.000			31.118			-2.829
52305.000			31.115			-2.829
52404.000			31.113			-2.828
52504.000			31.113			-2.828
52604.000			31.113			-2.828
52704.000			31.112			-2.828
52804.000			31.111			-2.828
52905.000			31.109			-2.828
53004.000			31.106			-2.828
53104.000			31.105			-2.828
53205.000			31.105			-2.828
53303.000			31.104			-2.828
53405.000			31.102			-2.827
53504.000			31.100			-2.827
53604.000			31.100			-2.827
53705.000			31.098			-2.827
53804.000			31.097			-2.827
53904.000			31.096			-2.827
54004.000			31.094			-2.827
54104.000			31.092			-2.827
54204.000			31.092			-2.827
54305.000			31.092			-2.827
54404.000			31.091			-2.826
54503.000			31.088			-2.826
54605.000			31.088			-2.826
54704.000			31.087			-2.826
54804.000			31.086			-2.826
54905.000			31.084			-2.826
55004.000			31.084			-2.826
55104.000			31.082			-2.826
55204.000			31.080			-2.825
55304.000			31.079			-2.825
55404.000			31.079			-2.825
55505.000			31.078			-2.825
55604.000			31.075			-2.825
55704.000			31.074			-2.825
55805.000			31.074			-2.825
55903.000			31.072			-2.825
56004.000			31.072			-2.825
56105.000			31.070			-2.825
56204.000			31.068			-2.824
56304.000			31.067			-2.824
56404.000			31.066			-2.824
56504.000			31.065			-2.824
56603.000			31.064			-2.824
56704.000			31.063			-2.824
56804.000			31.061			-2.824
56905.000			31.060			-2.824
57004.000			31.059			-2.824
57104.000			31.058			-2.823
57205.000			31.056			-2.823
57303.000			31.055			-2.823
57404.000			31.054			-2.823
57505.000			31.053			-2.823
57604.000			31.051			-2.823
57704.000			31.050			-2.823
57805.000			31.049			-2.823
57904.000			31.048			-2.823
58003.000			31.048			-2.823
58105.000			31.045			-2.822
58204.000			31.045			-2.822
58304.000			31.044			-2.822
58405.000			31.043			-2.822
58503.000			31.041			-2.822
58604.000			31.040			-2.822
58705.000			31.040			-2.822
58804.000			31.038			-2.822
58904.000			31.036			-2.821
59005.000			31.036			-2.821
59104.000			31.035			-2.821
59203.000			31.033			-2.821
59305.000			31.033			-2.821
59404.000			31.032			-2.821
59504.000			31.030			-2.821
59605.000			31.030			-2.821
59704.000			31.028			-2.821
59805.000			31.027			-2.821
59903.000			31.026			-2.821
60004.000			31.025			-2.820
60105.000			31.023			-2.820
60204.000			31.023			-2.820
60304.000			31.022			-2.820
60405.000			31.022			-2.820
60504.000			31.021			-2.820
60603.000			31.019			-2.820
60705.000			31.019			-2.820
60804.000			31.017			-2.820
60904.000			31.015			-2.820
61005.000			31.014			-2.819
61103.000			31.013			-2.819
61204.000			31.013			-2.819
61305.000			31.012			-2.819
61404.000			31.011			-2.819
61504.000			31.009			-2.819
61605.000			31.008			-2.819
61704.000			31.006			-2.819
61803.000			31.006			-2.819
61905.000			31.004			-2.819
62004.000			31.003			-2.818
62104.000			31.002			-2.818
62205.000			31.001			-2.818
62303.000			31.000			-2.818
62404.000			30.998			-2.818
62505.000			30.997			-2.818
62604.000			30.997			-2.818
62704.000			30.997			-2.818
62804.000			30.995			-2.818
62904.000			30.994			-2.818
63003.000			30.993			-2.818
63104.000			30.990			-2.817
63204.000			30.989			-2.817
63305.000			30.988			-2.817
63404.000			30.988			-2.817
63504.000			30.988			-2.817
63605.000			30.987			-2.817
63703.000			30.986			-2.817
63804.000			30.984			-2.817
63905.000			30.983			-2.817
64004.000			30.981			-2.816
64104.000			30.981			-2.816
64205.000			30.979			-2.816
64304.000			30.978			-2.816
64403.000			30.977			-2.816
64505.000			30.976			-2.816
64604.000			30.975			-2.816
64704.000			30.974			-2.816
64805.000			30.973			-2.816
64904.000			30.972			-2.816
65004.000			30.972			-2.816
65104.000			30.971			-2.816
65204.000			30.969			-2.815
65304.000			30.968			-2.815
65405.000			30.967			-2.815
65504.000			30.966			-2.815
65604.000			30.965			-2.815
65705.000			30.964			-2.815
65803.000			30.962			-2.815
65904.000			30.962			-2.815
66005.000			30.961			-2.815
66104.000			30.960			-2.815
66205.000			30.958			-2.814
66304.000			30.956			-2.814
66404.000			30.956			-2.814
66504.000			30.955			-2.814
66604.000			30.955			-2.814
66703.000			30.953			-2.814
66805.000			30.952			-2.814
66904.000			30.952			-2.814
67004.000			30.952			-2.814
67105.000			30.950			-2.814
67203.000			30.949			-2.814
67304.000			30.948			-2.813
67405.000			30.946			-2.813
67504.000			30.944			-2.813
67604.000			30.944			-2.813
67705.000			30.943			-2.813
67804.000			30.942			-2.813
67904.000			30.942			-2.813
68005.000			30.942			-2.813
68103.000			30.939			-2.813
68204.000			30.938			-2.813
68305.000			30.937			-2.812
68404.000			30.937			-2.812
68504.000			30.936			-2.812
68605.000			30.935			-2.812
68704.000			30.935			-2.812
68803.000			30.934			-2.812
68905.000			30.931			-2.812
69004.000			30.931			-2.812
69104.000			30.930			-2.812
69205.000			30.929			-2.812
69304.000			30.928			-2.812
69405.000			30.927			-2.812
69503.000			30.926			-2.811
69604.000			30.925			-2.811
69705.000			30.924			-2.811
69804.000			30.922			-2.811
69904.000			30.922			-2.811
70005.000			30.922			-2.811
70104.000			30.920			-2.811
70203.000			30.918			-2.811
70305.000			30.918			-2.811
70404.000			30.918			-2.811
70504.000			30.916			-2.811
70605.000			30.915			-2.810
70704.000			30.914			-2.810
70804.000			30.914			-2.810
70904.000			30.913			-2.810
71004.000			30.910			-2.810
71104.000			30.910			-2.810
71205.000			30.909			-2.810
71304.000			30.908			-2.810
71403.000			30.907			-2.810
71505.000			30.906			-2.810
71604.000			30.905			-2.810
71704.000			30.903			-2.809
71805.000			30.903			-2.809
71904.000			30.903			-2.809
72004.000			30.902			-2.809
72104.000			30.901			-2.809
72204.000			30.900			-2.809
72304.000			30.900			-2.809
72404.000			30.899			-2.809
72504.000			30.898			-2.809
72605.000			30.897			-2.809
72704.000			30.895			-2.809
72803.000			30.894			-2.809
72905.000			30.894			-2.809
73004.000			30.892			-2.808
73104.000			30.892			-2.808
73205.000			30.891			-2.808
73304.000			30.889			-2.808
73404.000			30.888			-2.808
73504.000			30.887			-2.808
73604.000			30.885			-2.808
73704.000			30.886			-2.808
73805.000			30.887			-2.808
73904.000			30.884			-2.808
74004.000			30.883			-2.808
74105.000			30.882			-2.807
74204.000			30.880			-2.807
74304.000			30.881			-2.807
74404.000			30.879			-2.807
74504.000			30.878			-2.807
74604.000			30.876			-2.807
74705.000			30.876			-2.807
74804.000			30.876			-2.807
74904.000			30.876			-2.807
75005.000			30.876			-2.807
75103.000			30.874			-2.807
75204.000			30.872			-2.807
75305.000			30.870			-2.806
75404.000			30.869			-2.806
75504.000			30.869			-2.806
75604.000			30.868			-2.806
75704.000			30.868			-2.806
75803.000			30.867			-2.806
75904.000			30.866			-2.806
76004.000			30.865			-2.806
76105.000			30.864			-2.806
76204.000			30.863			-2.806
76304.000			30.862			-2.806
76405.000			30.863			-2.806
76503.000			30.861			-2.806
76604.000			30.859			-2.805
76705.000			30.860			-2.805
76804.000			30.858			-2.805
76904.000			30.858			-2.805
77005.000			30.856			-2.805
77104.000			30.854			-2.805
77203.000			30.853			-2.805
77305.000			30.854			-2.805
77404.000			30.852			-2.805
77504.000			30.851			-2.805
77605.000			30.850			-2.805
77704.000			30.850			-2.805
77804.000			30.849			-2.804
77904.000			30.848			-2.804
78004.000			30.847			-2.804
78104.000			30.847			-2.804
78205.000			30.846			-2.804
78304.000			30.843			-2.804
78404.000			30.843			-2.804
78505.000			30.843			-2.804
78603.000			30.843			-2.804
78704.000			30.842			-2.804
78805.000			30.841			-2.804
78904.000			30.841			-2.804
79005.000			30.837			-2.803
79104.000			30.837			-2.803
79204.000			30.837			-2.803
79304.000			30.836			-2.803
79404.000			30.835			-2.803
79504.000			30.834			-2.803
79605.000			30.833			-2.803
79704.000			30.832			-2.803
79804.000			30.831			-2.803
79905.000			30.830			-2.803
80003.000			30.830			-2.803
80104.000			30.829			-2.803
80205.000			30.828			-2.803
80304.000			30.826			-2.802
80404.000			30.826			-2.802
80505.000			30.826			-2.802
80604.000			30.826			-2.802
80703.000			30.824			-2.802
80805.000			30.822			-2.802
80904.000			30.823			-2.802
81004.000			30.823			-2.802
81105.000			30.820			-2.802
81204.000			30.819			-2.802
81304.000			30.819			-2.802
81404.000			30.817			-2.802
81504.000			30.816			-2.801
81604.000			30.816			-2.801
81705.000			30.815			-2.801
81804.000			30.813			-2.801
81904.000			30.813			-2.801
82005.000			30.812			-2.801
82103.000			30.811			-2.801
82205.000			30.812			-2.801
82304.000			30.812			-2.801
82404.000			30.810			-2.801
82505.000			30.810			-2.801
82604.000			30.808			-2.801
82704.000			30.807			-2.801
82804.000			30.807			-2.801
82904.000			30.806			-2.801
83004.000			30.805			-2.800
83105.000			30.805			-2.800
83204.000			30.803			-2.800
83304.000			30.802			-2.800
83405.000			30.802			-2.800
83503.000			30.801			-2.800
83604.000			30.800			-2.800
83705.000			30.799			-2.800
83804.000			30.798			-2.800
83904.000			30.797			-2.800
84005.000			30.796			-2.800
84104.000			30.796			-2.800
84203.000			30.795			-2.800
84305.000			30.793			-2.799
84404.000			30.793			-2.799
84504.000			30.792			-2.799
84605.000			30.791			-2.799
84704.000			30.790			-2.799
84804.000			30.789			-2.799
84904.000			30.789			-2.799
85004.000			30.789			-2.799
85104.000			30.789			-2.799
85204.000			30.787			-2.799
85304.000			30.786			-2.799
85405.000			30.786			-2.799
85504.000			30.784			-2.799
85603.000			30.783			-2.798
85705.000			30.782			-2.798
85804.000			30.781			-2.798
85904.000			30.780			-2.798
86005.000			30.780			-2.798
86104.000			30.780			-2.798
86204.000			30.778			-2.798
86304.000			30.777			-2.798
86404.000			30.778			-2.798
86504.000			30.777			-2.798
86605.000			30.776			-2.798
86704.000			30.774			-2.798
86804.000			30.773			-2.798
86905.000			30.773			-2.798
87003.000			30.772			-2.797
87104.000			30.772			-2.797
87205.000			30.771			-2.797
87304.000			30.770			-2.797
87404.000			30.769			-2.797
87505.000			30.769			-2.797
87604.000			30.768			-2.797
87703.000			30.767			-2.797
87805.000			30.765			-2.797
87903.000			30.764			-2.797
88004.000			30.765			-2.797
88105.000			30.765			-2.797
88204.000			30.764			-2.797
88304.000			30.762			-2.797
88404.000			30.762			-2.797
88504.000			30.762			-2.797
88603.000			30.760			-2.796
88704.000			30.759			-2.796
88804.000			30.758			-2.796
88905.000			30.756			-2.796
89004.000			30.756			-2.796
89104.000			30.756			-2.796
89205.000			30.755			-2.796
89303.000			30.754			-2.796
89404.000			30.753			-2.796
89505.000			30.754			-2.796
89604.000			30.753			-2.796
89704.000			30.752			-2.796
89805.000			30.749			-2.795
89904.000			30.749			-2.795
90003.000			30.749			-2.795
90105.000			30.748			-2.795
90204.000			30.746			-2.795
90304.000			30.746			-2.795
90405.000			30.746			-2.795
90504.000			30.745			-2.795
90604.000			30.745			-2.795
90704.000			30.744			-2.795
90804.000			30.743			-2.795
90904.000			30.743			-2.795
91005.000			30.742			-2.795
91104.000			30.739			-2.794
91204.000			30.741			-2.795
91305.000			30.739			-2.794
91403.000			30.739			-2.794
91504.000			30.739			-2.794
91605.000			30.738			-2.794
91704.000			30.736			-2.794
91805.000			30.736			-2.794
91904.000			30.735			-2.794
92004.000			30.734			-2.794
92104.000			30.732			-2.794
92204.000			30.733			-2.794
92304.000			30.732			-2.794
92405.000			30.730			-2.794
92504.000			30.731			-2.794
92604.000			30.730			-2.794
92705.000			30.729			-2.794
92803.000			30.727			-2.793
92904.000			30.726			-2.793
93005.000			30.726			-2.793
93104.000			30.725			-2.793
93204.000			30.725			-2.793
93305.000			30.724			-2.793
93404.000			30.723			-2.793
93503.000			30.722			-2.793
93605.000			30.723			-2.793
93704.000			30.722			-2.793
93804.000			30.720			-2.793
93905.000			30.720			-2.793
94004.000			30.719			-2.793
94104.000			30.718			-2.793
94204.000			30.717			-2.792
94304.000			30.717			-2.792
94404.000			30.717			-2.792
94505.000			30.716			-2.792
94604.000			30.716			-2.792
94704.000			30.714			-2.792
94805.000			30.714			-2.792
94903.000			30.713			-2.792
95005.000			30.712			-2.792
95104.000			30.711			-2.792
95204.000			30.711			-2.792
95305.000			30.711			-2.792
95404.000			30.711			-2.792
95504.000			30.707			-2.792
95604.000			30.707			-2.792
95704.000			30.706			-2.791
95804.000			30.706			-2.791
95905.000			30.705			-2.791
96004.000			30.703			-2.791
96104.000			30.702			-2.791
96205.000			30.703			-2.791
96303.000			30.702			-2.791
96404.000			30.701			-2.791
96505.000			30.701			-2.791
96604.000			30.701			-2.791
96704.000			30.699			-2.791
96805.000			30.698			-2.791
96904.000			30.699			-2.791
97003.000			30.697			-2.791
97105.000			30.696			-2.791
97204.000			30.696			-2.791
97304.000			30.695			-2.790
97405.000			30.695			-2.790
97504.000			30.694			-2.790
97604.000			30.693			-2.790
97704.000			30.691			-2.790
97804.000			30.691			-2.790
97904.000			30.691			-2.790
98004.000			30.690			-2.790
98104.000			30.688			-2.790
98205.000			30.688			-2.790
98304.000			30.687			-2.790
98403.000			30.687			-2.790
98505.000			30.687			-2.790
98604.000			30.686			-2.790
98704.000			30.686			-2.790
98805.000			30.685			-2.790
98904.000			30.684			-2.789
99004.000			30.683			-2.789
99104.000			30.682			-2.789
99204.000			30.682			-2.789
99303.000			30.681			-2.789
99405.000			30.680			-2.789
99504.000			30.679			-2.789
99604.000			30.678			-2.789
99705.000			30.678			-2.789
99804.000			30.679			-2.789
99904.000			30.677			-2.789
100004.000			30.677			-2.789
100104.000			30.676			-2.789
100204.000			30.674			-2.789
100305.000			30.674			-2.789
100404.000			30.673			-2.788
100504.000			30.673			-2.788
100605.000			30.672			-2.788
100703.000			30.671			-2.788
100804.000			30.670			-2.788
100905.000			30.669			-2.788
101004.000			30.669			-2.788
101104.000			30.669			-2.788
101204.000			30.668			-2.788
101304.000			30.666			-2.788
101403.000			30.665			-2.788
101504.000			30.666			-2.788
101604.000			30.665			-2.788
101705.000			30.663			-2.788
101804.000			30.664			-2.788
101904.000			30.664			-2.788
102005.000			30.662			-2.787
102103.000			30.661			-2.787
102204.000			30.660			-2.787
102305.000			30.660			-2.787
102404.000			30.660			-2.787
102504.000			30.659			-2.787
102605.000			30.658			-2.787
102704.000			30.657			-2.787
102803.000			30.656			-2.787
102905.000			30.656			-2.787
103004.000			30.657			-2.787
103104.000			30.656			-2.787
103205.000			30.656			-2.787
103304.000			30.654			-2.787
103404.000			30.654			-2.787
103504.000			30.653			-2.787
103604.000			30.651			-2.786
103704.000			30.651			-2.786
103805.000			30.650			-2.786
103904.000			30.649			-2.786
104004.000			30.648			-2.786
104105.000			30.648			-2.786
104203.000			30.648			-2.786
104304.000			30.647			-2.786
104405.000			30.647			-2.786
104504.000			30.646			-2.786
104605.000			30.645			-2.786
104704.000			30.644			-2.786
104804.000			30.642			-2.786
104904.000			30.642			-2.786
105004.000			30.642			-2.786
105104.000			30.641			-2.786
105205.000			30.640			-2.785
105304.000			30.640			-2.785
105404.000			30.639			-2.785
105505.000			30.638			-2.785
105603.000			30.638			-2.785
105704.000			30.637			-2.785
105805.000			30.636			-2.785
105904.000			30.636			-2.785
106004.000			30.634			-2.785
106105.000			30.634			-2.785
106204.000			30.634			-2.785
106303.000			30.633			-2.785
106405.000			30.632			-2.785
106504.000			30.631			-2.785
106604.000			30.630			-2.785
106705.000			30.629			-2.784
106804.000			30.631			-2.785
106904.000			30.630			-2.785
107004.000			30.630			-2.785
107104.000			30.627			-2.784
107204.000			30.627			-2.784
107305.000			30.626			-2.784
107404.000			30.626			-2.784
107504.000			30.626			-2.784
107605.000			30.624			-2.784
107703.000			30.624			-2.784
107805.000			30.623			-2.784
107904.000			30.623			-2.784
108004.000			30.622			-2.784
108105.000			30.623			-2.784
108204.000			30.622			-2.784
108304.000			30.622			-2.784
108404.000			30.621			-2.784
108504.000			30.619			-2.784
108604.000			30.617			-2.783
108705.000			30.618			-2.783
108804.000			30.617			-2.783
108904.000			30.616			-2.783
109005.000			30.615			-2.783
109103.000			30.615			-2.783
109204.000			30.615			-2.783
109305.000			30.613			-2.783
109404.000			30.613			-2.783
109504.000			30.613			-2.783
109605.000			30.612			-2.783
109704.000			30.611			-2.783
109803.000			30.611			-2.783
109905.000			30.611			-2.783
110004.000			30.609			-2.783
110104.000			30.609			-2.783
110205.000			30.609			-2.783
110304.000			30.608			-2.783
110404.000			30.608			-2.783
110504.000			30.607			-2.782
110604.000			30.606			-2.782
110704.000			30.605			-2.782
110804.000			30.605			-2.782
110904.000			30.604			-2.782
111005.000			30.603			-2.782
111104.000			30.602			-2.782
111203.000			30.602			-2.782
111305.000			30.601			-2.782
111404.000			30.600			-2.782
111504.000			30.599			-2.782
111605.000			30.598			-2.782
111704.000			30.598			-2.782
111804.000			30.598			-2.782
111904.000			30.597			-2.782
112004.000			30.597			-2.782
112104.000			30.597			-2.782
112205.000			30.596			-2.781
112304.000			30.595			-2.781
112404.000			30.594			-2.781
112505.000			30.594			-2.781
112604.000			30.593			-2.781
112704.000			30.593			-2.781
112804.000			30.592			-2.781
112904.000			30.591			-2.781
113004.000			30.591			-2.781
113105.000			30.591			-2.781
113204.000			30.590			-2.781
113304.000			30.589			-2.781
113405.000			30.588			-2.781
113503.000			30.587			-2.781
113604.000			30.585			-2.780
113705.000			30.585			-2.780
113804.000			30.585			-2.780
113904.000			30.585			-2.780
114004.000			30.585			-2.780
114104.000			30.584			-2.780
114203.000			30.584			-2.780
114304.000			30.582			-2.780
114404.000			30.581			-2.780
114505.000			30.581			-2.780
114604.000			30.581			-2.780
114704.000			30.581			-2.780
114805.000			30.580			-2.780
114903.000			30.579			-2.780
115004.000			30.578			-2.780
115105.000			30.577			-2.780
115204.000			30.578			-2.780
115304.000			30.577			-2.780
115405.000			30.575			-2.780
115504.000			30.575			-2.780
115603.000			30.575			-2.780
115705.000			30.573			-2.779
115804.000			30.574			-2.779
115904.000			30.572			-2.779
116005.000			30.572			-2.779
116104.000			30.571			-2.779
116204.000			30.572			-2.779
116304.000			30.571			-2.779
116404.000			30.570			-2.779
116504.000			30.569			-2.779
116605.000			30.568			-2.779
116704.000			30.568			-2.779
116804.000			30.567			-2.779
116905.000			30.566			-2.779
117004.000			30.566			-2.779
117104.000			30.565			-2.779
117203.000			30.565			-2.779
117304.000			30.563			-2.778
117405.000			30.562			-2.778
117504.000			30.562			-2.778
117604.000			30.562			-2.778
117705.000			30.561			-2.778
117804.000			30.561			-2.778
117903.000			30.560			-2.778
118005.000			30.560			-2.778
118104.000			30.560			-2.778
118204.000			30.559			-2.778
118305.000			30.558			-2.778
118404.000			30.558			-2.778
118504.000			30.557			-2.778
118604.000			30.556			-2.778
118704.000			30.557			-2.778
118804.000			30.555			-2.778
118905.000			30.554			-2.778
119004.000			30.554			-2.778
119104.000			30.553			-2.778
119205.000			30.552			-2.777
119303.000			30.552			-2.777
119404.000			30.552			-2.777
119505.000			30.552			-2.777
119604.000			30.551			-2.777
119704.000			30.550			-2.777
119805.000			30.551			-2.777
119904.000			30.550			-2.777
120003.000			30.549			-2.777
120105.000			30.548			-2.777
120204.000			30.548			-2.777
120304.000			30.546			-2.777
120405.000			30.545			-2.777
120504.000			30.545			-2.777
120605.000			30.544			-2.777
120704.000			30.544			-2.777
120804.000			30.544			-2.777
120904.000			30.543			-2.777
121004.000			30.542			-2.777
121104.000			30.542			-2.777
121205.000			30.542			-2.777
121304.000			30.542			-2.777
121403.000			30.539			-2.776
121505.000			30.538			-2.776
121604.000			30.538			-2.776
121704.000			30.538			-2.776
121805.000			30.538			-2.776
121904.000			30.538			-2.776
122004.000			30.537			-2.776
122104.000			30.536			-2.776
122204.000			30.535			-2.776
122303.000			30.534			-2.776
122405.000			30.534			-2.776
122504.000			30.533			-2.776
122604.000			30.533			-2.776
122705.000			30.533			-2.776
122803.000			30.532			-2.776
122904.000			30.532			-2.776
123005.000			30.531			-2.776
123104.000			30.531			-2.776
123204.000			30.530			-2.775
123305.000			30.529			-2.775
123404.000			30.528			-2.775
123503.000			30.528			-2.775
123605.000			30.528			-2.775
123704.000			30.528			-2.775
123805.000			30.527			-2.775
123904.000			30.526			-2.775
124004.000			30.524			-2.775
124105.000			30.524			-2.775
124204.000			30.524			-2.775
124304.000			30.524			-2.775
124404.000			30.523			-2.775
124504.000			30.522			-2.775
124604.000			30.521			-2.775
124705.000			30.520			-2.775
124804.000			30.520			-2.775
124904.000			30.520			-2.775
125005.000			30.520			-2.775
125103.000			30.520			-2.775
125204.000			30.518			-2.774
125305.000			30.518			-2.774
125404.000			30.518			-2.774
125504.000			30.517			-2.774
125605.000			30.516			-2.774
125704.000			30.516			-2.774
125803.000			30.516			-2.774
125905.000			30.515			-2.774
126004.000			30.514			-2.774
126104.000			30.514			-2.774
126205.000			30.512			-2.774
126304.000			30.512			-2.774
126404.000			30.513			-2.774
126504.000			30.512			-2.774
126604.000			30.510			-2.774
126704.000			30.510			-2.774
126804.000			30.509			-2.774
126904.000			30.509			-2.774
127005.000			30.508			-2.773
127104.000			30.506			-2.773
127203.000			30.506			-2.773
127305.000			30.505			-2.773
127404.000			30.506			-2.773
127504.000			30.506			-2.773
127605.000			30.506			-2.773
127704.000			30.504			-2.773
127804.000			30.504			-2.773
127904.000			30.504			-2.773
128004.000			30.503			-2.773
128104.000			30.502			-2.773
128205.000			30.501			-2.773
128304.000			30.501			-2.773
128404.000			30.500			-2.773
128505.000			30.499			-2.773
128603.000			30.499			-2.773
128704.000			30.499			-2.773
128805.000			30.499			-2.773
128904.000			30.498			-2.773
129004.000			30.497			-2.772
129105.000			30.496			-2.772
129204.000			30.496			-2.772
129303.000			30.496			-2.772
129405.000			30.496			-2.772
129504.000			30.494			-2.772
129604.000			30.494			-2.772
129705.000			30.494			-2.772
129804.000			30.494			-2.772
129904.000			30.493			-2.772
130004.000			30.492			-2.772
130104.000			30.491			-2.772
130203.000			30.490			-2.772
130304.000			30.490			-2.772
130404.000			30.490			-2.772
130505.000			30.490			-2.772
130604.000			30.489			-2.772
130704.000			30.488			-2.772
130805.000			30.487			-2.772
130903.000			30.487			-2.772
131004.000			30.487			-2.772
131105.000			30.485			-2.771
131204.000			30.484			-2.771
131304.000			30.485			-2.771
131405.000			30.484			-2.771
131504.000			30.485			-2.771
131603.000			30.482			-2.771
131705.000			30.482			-2.771
131804.000			30.481			-2.771
131904.000			30.481			-2.771
132005.000			30.481			-2.771
132104.000			30.480			-2.771
132204.000			30.480			-2.771
132305.000			30.480			-2.771
132404.000			30.479			-2.771
132503.000			30.479			-2.771
132605.000			30.478			-2.771
132704.000			30.477			-2.771
132804.000			30.476			-2.771
132905.000			30.476			-2.771
133004.000			30.476			-2.771
133104.000			30.475			-2.770
133204.000			30.475			-2.770
133304.000			30.474			-2.770
133403.000			30.474			-2.770
133504.000			30.474			-2.770
133604.000			30.473			-2.770
133705.000			30.472			-2.770
133804.000			30.472			-2.770
133904.000			30.471			-2.770
134005.000			30.470			-2.770
134104.000			30.469			-2.770
134204.000			30.468			-2.770
134304.000			30.468			-2.770
134404.000			30.468			-2.770
134504.000			30.467			-2.770
134605.000			30.467			-2.770
134704.000			30.467			-2.770
134804.000			30.466			-2.770
134905.000			30.466			-2.770
135003.000			30.465			-2.770
135104.000			30.465			-2.770
135205.000			30.464			-2.769
135304.000			30.465			-2.770
135404.000			30.463			-2.769
135505.000			30.462			-2.769
135604.000			30.461			-2.769
135704.000			30.461			-2.769
135805.000			30.460			-2.769
135903.000			30.460			-2.769
136004.000			30.460			-2.769
136105.000			30.459			-2.769
136204.000			30.458			-2.769
136304.000			30.456			-2.769
136404.000			30.457			-2.769
136504.000			30.457			-2.769
136605.000			30.457			-2.769
136704.000			30.456			-2.769
136803.000			30.456			-2.769
136905.000			30.455			-2.769
137004.000			30.454			-2.769
137104.000			30.453			-2.768
137205.000			30.455			-2.769
137304.000			30.454			-2.769
137404.000			30.453			-2.768
137505.000			30.451			-2.768
137604.000			30.451			-2.768
137703.000			30.450			-2.768
137805.000			30.449			-2.768
137904.000			30.449			-2.768
138004.000			30.449			-2.768
138105.000			30.447			-2.768
138204.000			30.447			-2.768
138304.000			30.446			-2.768
138405.000			30.446			-2.768
138504.000			30.445			-2.768
138603.000			30.446			-2.768
138705.000			30.445			-2.768
138804.000			30.444			-2.768
138904.000			30.445			-2.768
139005.000			30.444			-2.768
139104.000			30.442			-2.767
139204.000			30.442			-2.767
139305.000			30.442			-2.767
139404.000			30.441			-2.767
139503.000			30.440			-2.767
139605.000			30.440			-2.767
139704.000			30.440			-2.767
139805.000			30.439			-2.767
139904.000			30.438			-2.767
140004.000			30.437			-2.767
140105.000			30.438			-2.767
140204.000			30.437			-2.767
140304.000			30.436			-2.767
140404.000			30.435			-2.767
140504.000			30.436			-2.767
140604.000			30.435			-2.767
140705.000			30.435			-2.767
140804.000			30.435			-2.767
140904.000			30.435			-2.767
141005.000			30.433			-2.767
141103.000			30.433			-2.767
141204.000			30.433			-2.767
141305.000			30.434			-2.767
141404.000			30.432			-2.767
141504.000			30.431			-2.766
141605.000			30.431			-2.766
141704.000			30.430			-2.766
141804.000			30.429			-2.766
141905.000			30.429			-2.766
142003.000			30.428			-2.766
142104.000			30.429			-2.766
142205.000			30.428			-2.766
142304.000			30.427			-2.766
142404.000			30.426			-2.766
142505.000			30.425			-2.766
142604.000			30.425			-2.766
142703.000			30.425			-2.766
142805.000			30.424			-2.766
142904.000			30.424			-2.766
143005.000			30.424			-2.766
143104.000			30.423			-2.766
143204.000			30.421			-2.766
143305.000			30.421			-2.766
143404.000			30.422			-2.766
143504.000			30.421			-2.766
143604.000			30.421			-2.766
143704.000			30.420			-2.765
143804.000			30.419			-2.765
143905.000			30.418			-2.765
144004.000			30.418			-2.765
144104.000			30.417			-2.765
144205.000			30.417			-2.765
144303.000			30.417			-2.765
144404.000			30.416			-2.765
144505.000			30.415			-2.765
144604.000			30.415			-2.765
144704.000			30.415			-2.765
144805.000			30.414			-2.765
144904.000			30.414			-2.765
145004.000			30.414			-2.765
145105.000			30.414			-2.765
145203.000			30.412			-2.765
145304.000			30.411			-2.765
145405.000			30.411			-2.765
145504.000			30.410			-2.765
145604.000			30.411			-2.765
145705.000			30.410			-2.765
145804.000			30.410			-2.765
145903.000			30.410			-2.765
146005.000			30.409			-2.764
146104.000			30.409			-2.764
146205.000			30.407			-2.764
146304.000			30.407			-2.764
146404.000			30.407			-2.764
146505.000			30.406			-2.764
146604.000			30.405			-2.764
146704.000			30.404			-2.764
146804.000			30.404			-2.764
146904.000			30.404			-2.764
147004.000			30.404			-2.764
147105.000			30.403			-2.764
147204.000			30.403			-2.764
147304.000			30.402			-2.764
147405.000			30.401			-2.764
147503.000			30.401			-2.764
147604.000			30.400			-2.764
147704.000			30.400			-2.764
147804.000			30.399			-2.764
147904.000			30.399			-2.764
148005.000			30.399			-2.764
148104.000			30.398			-2.763
148204.000			30.397			-2.763
148305.000			30.397			-2.763
148403.000			30.397			-2.763
148504.000			30.396			-2.763
148604.000			30.394			-2.763
148704.000			30.394			-2.763
148804.000			30.393			-2.763
148905.000			30.394			-2.763
149004.000			30.393			-2.763
149104.000			30.393			-2.763
149205.000			30.392			-2.763
149303.000			30.392			-2.763
149405.000			30.392			-2.763
149503.000			30.391			-2.763
149604.000			30.390			-2.763
149705.000			30.390			-2.763
149804.000			30.389			-2.763
149904.000			30.389			-2.763
150005.000			30.389			-2.763
150104.000			30.388			-2.763
150203.000			30.388			-2.763
150305.000			30.387			-2.762
150403.000			30.386			-2.762
150504.000			30.386			-2.762
150605.000			30.385			-2.762
150704.000			30.385			-2.762
150804.000			30.385			-2.762
150905.000			30.384			-2.762
151004.000			30.383			-2.762
151103.000			30.384			-2.762
151205.000			30.384			-2.762
151304.000			30.383			-2.762
151404.000			30.382			-2.762
151505.000			30.381			-2.762
151604.000			30.382			-2.762
151704.000			30.381			-2.762
151804.000			30.380			-2.762
151904.000			30.379			-2.762
152003.000			30.378			-2.762
152105.000			30.377			-2.762
152204.000			30.377			-2.762
152304.000			30.377			-2.762
152405.000			30.377			-2.762
152504.000			30.377			-2.762
152605.000			30.376			-2.761
152704.000			30.376			-2.761
152804.000			30.375			-2.761
152904.000			30.375			-2.761
153004.000			30.375			-2.761
153104.000			30.373			-2.761
153205.000			30.374			-2.761
153304.000			30.374			-2.761
153404.000			30.372			-2.761
153505.000			30.371			-2.761
153603.000			30.370			-2.761
153704.000			30.370			-2.761
153804.000			30.370			-2.761
153904.000			30.370			-2.761
154004.000			30.369			-2.761
154105.000			30.368			-2.761
154204.000			30.368			-2.761
154304.000			30.368			-2.761
154405.000			30.368			-2.761
154503.000			30.368			-2.761
154604.000			30.366			-2.761
154705.000			30.366			-2.761
154804.000			30.366			-2.761
154904.000			30.366			-2.761
155005.000			30.365			-2.760
155104.000			30.365			-2.760
155204.000			30.366			-2.761
155305.000			30.365			-2.760
155403.000			30.363			-2.760
155504.000			30.361			-2.760
155605.000			30.361			-2.760
155704.000			30.361			-2.760
155805.000			30.360			-2.760
155904.000			30.361			-2.760
156004.000			30.361			-2.760
156105.000			30.360			-2.760
156204.000			30.359			-2.760
156303.000			30.359			-2.760
156405.000			30.358			-2.760
156504.000			30.357			-2.760
156604.000			30.357			-2.760
156705.000			30.357			-2.760
156804.000			30.357			-2.760
156904.000			30.357			-2.760
157005.000			30.356			-2.760
157104.000			30.357			-2.760
157203.000			30.356			-2.760
157305.000			30.354			-2.759
157404.000			30.354			-2.759
157504.000			30.353			-2.759
157605.000			30.353			-2.759
157704.000			30.351			-2.759
157804.000			30.352			-2.759
157904.000			30.352			-2.759
158004.000			30.351			-2.759
158103.000			30.351			-2.759
158205.000			30.350			-2.759
158304.000			30.349			-2.759
158404.000			30.349			-2.759
158505.000			30.349			-2.759
158604.000			30.349			-2.759
158704.000			30.349			-2.759
158803.000			30.347			-2.759
158904.000			30.347			-2.759
159003.000			30.347			-2.759
159104.000			30.346			-2.759
159204.000			30.347			-2.759
159305.000			30.346			-2.759
159404.000			30.345			-2.759
159504.000			30.345			-2.759
159605.000			30.344			-2.759
159703.000			30.344			-2.759
159804.000			30.343			-2.758
159905.000			30.343			-2.758
160004.000			30.342			-2.758
160104.000			30.341			-2.758
160205.000			30.341			-2.758
160304.000			30.340			-2.758
160404.000			30.339			-2.758
160505.000			30.340			-2.758
160603.000			30.339			-2.758
160704.000			30.339			-2.758
160805.000			30.339			-2.758
160904.000			30.339			-2.758
161004.000			30.338			-2.758
161105.000			30.337			-2.758
161204.000			30.337			-2.758
161304.000			30.336			-2.758
161405.000			30.336			-2.758
161503.000			30.334			-2.758
161604.000			30.335			-2.758
161705.000			30.336			-2.758
161804.000			30.335			-2.758
161904.000			30.334			-2.758
162004.000			30.333			-2.758
162104.000			30.333			-2.758
162203.000			30.332			-2.757
162304.000			30.332			-2.757
162403.000			30.332			-2.757
162505.000			30.331			-2.757
162604.000			30.330			-2.757
162704.000			30.331			-2.757
162805.000			30.330			-2.757
162904.000			30.330			-2.757
163004.000			30.330			-2.757
163104.000			30.328			-2.757
163204.000			30.327			-2.757
163304.000			30.327			-2.757
163405.000			30.327			-2.757
163504.000			30.326			-2.757
163604.000			30.326			-2.757
163705.000			30.327			-2.757
163804.000			30.326			-2.757
163904.000			30.324			-2.757
164004.000			30.323			-2.757
164104.000			30.322			-2.757
164204.000			30.323			-2.757
164305.000			30.323			-2.757
164404.000			30.322			-2.757
164504.000			30.321			-2.756
164605.000			30.321			-2.756
164703.000			30.321			-2.756
164804.000			30.320			-2.756
164905.000			30.320			-2.756
165004.000			30.320			-2.756
165104.000			30.320			-2.756
165204.000			30.320			-2.756
165304.000			30.319			-2.756
165405.000			30.318			-2.756
165504.000			30.318			-2.756
165603.000			30.317			-2.756
165705.000			30.316			-2.756
165804.000			30.316			-2.756
165904.000			30.316			-2.756
166005.000			30.316			-2.756
166104.000			30.315			-2.756
166204.000			30.314			-2.756
166304.000			30.314			-2.756
166404.000			30.314			-2.756
166503.000			30.314			-2.756
166605.000			30.313			-2.756
166704.000			30.312			-2.756
166804.000			30.312			-2.756
166905.000			30.312			-2.756
167004.000			30.311			-2.756
167104.000			30.311			-2.756
167204.000			30.311			-2.756
167304.000			30.311			-2.756
167404.000			30.310			-2.755
167505.000			30.310			-2.755
167604.000			30.309			-2.755
167704.000			30.308			-2.755
167805.000			30.308			-2.755
167904.000			30.308			-2.755
168004.000			30.307			-2.755
168104.000			30.307			-2.755
168204.000			30.306			-2.755
168304.000			30.306			-2.755
168404.000			30.305			-2.755
168504.000			30.304			-2.755
168605.000			30.304			-2.755
168704.000			30.304			-2.755
168803.000			30.303			-2.755
168905.000			30.302			-2.755
169003.000			30.303			-2.755
169104.000			30.302			-2.755
169205.000			30.302			-2.755
169304.000			30.302			-2.755
169404.000			30.301			-2.755
169505.000			30.301			-2.755
169604.000			30.301			-2.755
169703.000			30.301			-2.755
169805.000			30.301			-2.755
169904.000			30.299			-2.754
170004.000			30.297			-2.754
170105.000			30.297			-2.754
170204.000			30.297			-2.754
170304.000			30.297			-2.754
170405.000			30.297			-2.754
170504.000			30.297			-2.754
170603.000			30.295			-2.754
170705.000			30.295			-2.754
170804.000			30.296			-2.754
170904.000			30.295			-2.754
171005.000			30.294			-2.754
171104.000			30.294			-2.754
171204.000			30.293			-2.754
171305.000			30.293			-2.754
171404.000			30.292			-2.754
171503.000			30.291			-2.754
171605.000			30.291			-2.754
171704.000			30.291			-2.754
171805.000			30.291			-2.754
171904.000			30.290			-2.754
172004.000			30.289			-2.754
172105.000			30.289			-2.754
172204.000			30.290			-2.754
172304.000			30.289			-2.754
172404.000			30.287			-2.753
172504.000			30.286			-2.753
172604.000			30.286			-2.753
172705.000			30.287			-2.753
172804.000			30.286			-2.753
172904.000			30.285			-2.753
173005.000			30.285			-2.753
173103.000			30.285			-2.753
173204.000			30.284			-2.753
173304.000			30.284			-2.753
173404.000			30.284			-2.753
173504.000			30.283			-2.753
173605.000			30.283			-2.753
173704.000			30.282			-2.753
173804.000			30.283			-2.753
173905.000			30.282			-2.753
174003.000			30.281			-2.753
174104.000			30.281			-2.753
174205.000			30.281			-2.753
174304.000			30.280			-2.753
174404.000			30.279			-2.753
174505.000			30.279			-2.753
174604.000			30.278			-2.753
174704.000			30.278			-2.753
174805.000			30.278			-2.753
174903.000			30.277			-2.752
175005.000			30.277			-2.752
175104.000			30.277			-2.752
175204.000			30.276			-2.752
175305.000			30.276			-2.752
175404.000			30.276			-2.752
175504.000			30.275			-2.752
175605.000			30.275			-2.752
175704.000			30.273			-2.752
175803.000			30.274			-2.752
175905.000			30.273			-2.752
176004.000			30.274			-2.752
176104.000			30.273			-2.752
176205.000			30.272			-2.752
176304.000			30.271			-2.752
176404.000			30.269			-2.752
176505.000			30.270			-2.752
176604.000			30.271			-2.752
176703.000			30.271			-2.752
176805.000			30.270			-2.752
176904.000			30.269			-2.752
177004.000			30.269			-2.752
177105.000			30.269			-2.752
177204.000			30.267			-2.752
177304.000			30.266			-2.751
177405.000			30.266			-2.751
177504.000			30.267			-2.752
177603.000			30.266			-2.751
177705.000			30.265			-2.751
177804.000			30.265			-2.751
177904.000			30.265			-2.751
178005.000			30.264			-2.751
178104.000			30.264			-2.751
178205.000			30.265			-2.751
178304.000			30.264			-2.751
178404.000			30.263			-2.751
178504.000			30.263			-2.751
178604.000			30.262			-2.751
178704.000			30.262			-2.751
178805.000			30.261			-2.751
178904.000			30.262			-2.751
179004.000			30.261			-2.751
179105.000			30.261			-2.751
179204.000			30.260			-2.751
179304.000			30.259			-2.751
179404.000			30.258			-2.751
179504.000			30.259			-2.751
179604.000			30.258			-2.751
179705.000			30.257			-2.751
179804.000			30.257			-2.751
179904.000			30.258			-2.751
180005.000			30.256			-2.751
180104.000			30.256			-2.751
180204.000			30.255			-2.750
180304.000			30.255			-2.750
180404.000			30.256			-2.751
180504.000			30.255			-2.750
180605.000			30.255			-2.750
180704.000			30.253			-2.750
180804.000			30.253			-2.750
180905.000			30.252			-2.750
181003.000			30.253			-2.750
181104.000			30.252			-2.750
181203.000			30.252			-2.750
181304.000			30.251			-2.750
181405.000			30.251			-2.750
181504.000			30.250			-2.750
181604.000			30.250			-2.750
181705.000			30.250			-2.750
181804.000			30.250			-2.750
181903.000			30.250			-2.750
182005.000			30.249			-2.750
182104.000			30.249			-2.750
182204.000			30.248			-2.750
182305.000			30.247			-2.750
182404.000			30.246			-2.750
182504.000			30.245			-2.750
182605.000			30.245			-2.750
182704.000			30.245			-2.750
182803.000			30.246			-2.750
182905.000			30.244			-2.749
183004.000			30.244			-2.749
183104.000			30.244			-2.749
183205.000			30.244			-2.749
183304.000			30.244			-2.749
183404.000			30.244			-2.749
183505.000			30.243			-2.749
183604.000			30.242			-2.749
183703.000			30.241			-2.749
183805.000			30.241			-2.749
183904.000			30.242			-2.749
184004.000			30.241			-2.749
184105.000			30.241			-2.749
184204.000			30.240			-2.749
184304.000			30.240			-2.749
184403.000			30.240			-2.749
184504.000			30.240			-2.749
184603.000			30.239			-2.749
184704.000			30.238			-2.749
184804.000			30.238			-2.749
184905.000			30.238			-2.749
185004.000			30.237			-2.749
185104.000			30.236			-2.749
185205.000			30.237			-2.749
185303.000			30.237			-2.749
185404.000			30.236			-2.749
185505.000			30.235			-2.749
185604.000			30.235			-2.749
185704.000			30.236			-2.749
185805.000			30.234			-2.749
185904.000			30.233			-2.748
186004.000			30.233			-2.748
186105.000			30.233			-2.748
186203.000			30.234			-2.749
186304.000			30.233			-2.748
186405.000			30.232			-2.748
186504.000			30.230			-2.748
186604.000			30.230			-2.748
186705.000			30.231			-2.748
186804.000			30.230			-2.748
186903.000			30.229			-2.748
187005.000			30.229			-2.748
187103.000			30.228			-2.748
187204.000			30.228			-2.748
187305.000			30.229			-2.748
187404.000			30.228			-2.748
187504.000			30.227			-2.748
187604.000			30.226			-2.748
187704.000			30.226			-2.748
187803.000			30.226			-2.748
187904.000			30.226			-2.748
188003.000			30.227			-2.748
188105.000			30.225			-2.748
188204.000			30.224			-2.748
188304.000			30.224			-2.748
188405.000			30.223			-2.748
188504.000			30.223			-2.748
188604.000			30.223			-2.748
188704.000			30.222			-2.747
188804.000			30.223			-2.748
188903.000			30.222			-2.747
189005.000			30.222			-2.747
189104.000			30.221			-2.747
189204.000			30.220			-2.747
189305.000			30.219			-2.747
189404.000			30.220			-2.747
189504.000			30.219			-2.747
189604.000			30.218			-2.747
189704.000			30.218			-2.747
189803.000			30.218			-2.747
189905.000			30.218			-2.747
190004.000			30.216			-2.747
190104.000			30.217			-2.747
190205.000			30.217			-2.747
190304.000			30.216			-2.747
190404.000			30.216			-2.747
190504.000			30.216			-2.747
190604.000			30.215			-2.747
190704.000			30.215			-2.747
190804.000			30.215			-2.747
190904.000			30.214			-2.747
191005.000			30.213			-2.747
191104.000			30.213			-2.747
191204.000			30.213			-2.747
191305.000			30.212			-2.747
191403.000			30.212			-2.747
191504.000			30.212			-2.747
191605.000			30.212			-2.747
191704.000			30.211			-2.746
191804.000			30.210			-2.746
191905.000			30.210			-2.746
192004.000			30.211			-2.746
192103.000			30.209			-2.746
192205.000			30.209			-2.746
192304.000			30.210			-2.746
192404.000			30.209			-2.746
192505.000			30.208			-2.746
192604.000			30.207			-2.746
192704.000			30.207			-2.746
192805.000			30.207			-2.746
192904.000			30.206			-2.746
193003.000			30.206			-2.746
193105.000			30.207			-2.746
193204.000			30.206			-2.746
193304.000			30.206			-2.746
193405.000			30.205			-2.746
193504.000			30.204			-2.746
193604.000			30.204			-2.746
193705.000			30.205			-2.746
193804.000			30.205			-2.746
193903.000			30.204			-2.746
194005.000			30.202			-2.746
194104.000			30.202			-2.746
194205.000			30.201			-2.746
194304.000			30.202			-2.746
194404.000			30.201			-2.746
194505.000			30.200			-2.745
194603.000			30.199			-2.745
194704.000			30.199			-2.745
194804.000			30.200			-2.745
194904.000			30.200			-2.745
195004.000			30.198			-2.745
195105.000			30.198			-2.745
195204.000			30.197			-2.745
195304.000			30.197			-2.745
195405.000			30.197			-2.745
195503.000			30.195			-2.745
195604.000			30.197			-2.745
195704.000			30.197			-2.745
195804.000			30.195			-2.745
195904.000			30.195			-2.745
196005.000			30.195			-2.745
196104.000			30.195			-2.745
196204.000			30.194			-2.745
196305.000			30.194			-2.745
196403.000			30.194			-2.745
196504.000			30.194			-2.745
196604.000			30.193			-2.745
196704.000			30.193			-2.745
196804.000			30.193			-2.745
196905.000			30.192			-2.745
197004.000			30.191			-2.745
197104.000			30.191			-2.745
197205.000			30.190			-2.745
197304.000			30.189			-2.744
197405.000			30.189			-2.744
197503.000			30.190			-2.745
197604.000			30.190			-2.745
197705.000			30.188			-2.744
197804.000			30.189			-2.744
197904.000			30.189			-2.744
198005.000			30.188			-2.744
198104.000			30.187			-2.744
198204.000			30.188			-2.744
198305.000			30.186			-2.744
198403.000			30.185			-2.744
198504.000			30.185			-2.744
198604.000			30.184			-2.744
198704.000			30.185			-2.744
198804.000			30.185			-2.744
198905.000			30.184			-2.744
199004.000			30.184			-2.744
199104.000			30.185			-2.744
199205.000			30.184			-2.744
199303.000			30.183			-2.744
199404.000			30.182			-2.744
199504.000			30.182			-2.744
199604.000			30.181			-2.744
199704.000			30.182			-2.744
199805.000			30.182			-2.744
199904.000			30.181			-2.744
200004.000			30.180			-2.744
200105.000			30.179			-2.744
200203.000			30.179			-2.744
200304.000			30.179			-2.744
200403.000			30.179			-2.744
200504.000			30.179			-2.744
200605.000			30.178			-2.743
200704.000			30.178			-2.743
200804.000			30.178			-2.743
200905.000			30.177			-2.743
201004.000			30.177			-2.743
201103.000			30.176			-2.743
201205.000			30.175			-2.743
201304.000			30.174			-2.743
201404.000			30.174			-2.743
201505.000			30.175			-2.743
201604.000			30.175			-2.743
201704.000			30.174			-2.743
201805.000			30.174			-2.743
201904.000			30.174			-2.743
202003.000			30.173			-2.743
202105.000			30.174			-2.743
202204.000			30.174			-2.743
202304.000			30.172			-2.743
202405.000			30.171			-2.743
202504.000			30.171			-2.743
202604.000			30.170			-2.743
202704.000			30.170			-2.743
202804.000			30.171			-2.743
202904.000			30.171			-2.743
203005.000			30.170			-2.743
203104.000			30.168			-2.743
203204.000			30.168			-2.743
203305.000			30.168			-2.743
203404.000			30.167			-2.742
203504.000			30.168			-2.743
203603.000			30.167			-2.742
203704.000			30.167			-2.742
203805.000			30.167			-2.742
203904.000			30.166			-2.742
204004.000			30.165			-2.742
204105.000			30.165			-2.742
204204.000			30.164			-2.742
204303.000			30.164			-2.742
204405.000			30.164			-2.742
204503.000			30.164			-2.742
204604.000			30.163			-2.742
204705.000			30.164			-2.742
204804.000			30.163			-2.742
204904.000			30.163			-2.742
205005.000			30.162			-2.742
205104.000			30.161			-2.742
205203.000			30.162			-2.742
205305.000			30.160			-2.742
205404.000			30.159			-2.742
205504.000			30.159			-2.742
205605.000			30.159			-2.742
205704.000			30.159			-2.742
205804.000			30.159			-2.742
205905.000			30.160			-2.742
206004.000			30.158			-2.742
206103.000			30.158			-2.742
206205.000			30.158			-2.742
206304.000			30.159			-2.742
206404.000			30.159			-2.742
206505.000			30.157			-2.742
206604.000			30.156			-2.741
206704.000			30.156			-2.741
206803.000			30.155			-2.741
206904.000			30.154			-2.741
207005.000			30.154			-2.741
207104.000			30.154			-2.741
207204.000			30.154			-2.741
207305.000			30.154			-2.741
207404.000			30.154			-2.741
207504.000			30.153			-2.741
207605.000			30.154			-2.741
207703.000			30.152			-2.741
207804.000			30.151			-2.741
207905.000			30.151			-2.741
208004.000			30.151			-2.741
208104.000			30.151			-2.741
208205.000			30.150			-2.741
208304.000			30.151			-2.741
208403.000			30.150			-2.741
208505.000			30.149			-2.741
208604.000			30.149			-2.741
208704.000			30.149			-2.741
208805.000			30.150			-2.741
208904.000			30.149			-2.741
209004.000			30.148			-2.741
209105.000			30.147			-2.741
209204.000			30.147			-2.741
209303.000			30.147			-2.741
209405.000			30.146			-2.741
209504.000			30.146			-2.741
209604.000			30.146			-2.741
209705.000			30.145			-2.740
209804.000			30.144			-2.740
209904.000			30.145			-2.740
210004.000			30.145			-2.740
210104.000			30.143			-2.740
210203.000			30.142			-2.740
210304.000			30.142			-2.740
210404.000			30.143			-2.740
210505.000			30.142			-2.740
210604.000			30.142			-2.740
210704.000			30.142			-2.740
210805.000			30.141			-2.740
210903.000			30.141			-2.740
211004.000			30.139			-2.740
211105.000			30.139			-2.740
211204.000			30.140			-2.740
211304.000			30.139			-2.740
211405.000			30.140			-2.740
211504.000			30.141			-2.740
211603.000			30.140			-2.740
211705.000			30.139			-2.740
211803.000			30.138			-2.740
211904.000			30.138			-2.740
212005.000			30.137			-2.740
212104.000			30.138			-2.740
212204.000			30.137			-2.740
212305.000			30.137			-2.740
212404.000			30.136			-2.740
212503.000			30.135			-2.740
212605.000			30.135			-2.740
212704.000			30.136			-2.740
212804.000			30.135			-2.740
212905.000			30.135			-2.740
213004.000			30.133			-2.739
213104.000			30.132			-2.739
213203.000			30.133			-2.739
213304.000			30.133			-2.739
213405.000			30.132			-2.739
213504.000			30.131			-2.739
213604.000			30.131			-2.739
213705.000			30.132			-2.739
213804.000			30.132			-2.739
213904.000			30.131			-2.739
214005.000			30.130			-2.739
214103.000			30.131			-2.739
214204.000			30.130			-2.739
214305.000			30.129			-2.739
214404.000			30.128			-2.739
214504.000			30.128			-2.739
214605.000			30.129			-2.739
214704.000			30.129			-2.739
214803.000			30.129			-2.739
214905.000			30.128			-2.739
215004.000			30.126			-2.739
215104.000			30.125			-2.739
215205.000			30.125			-2.739
215304.000			30.125			-2.739
215404.000			30.126			-2.739
215505.000			30.126			-2.739
215604.000			30.125			-2.739
215703.000			30.124			-2.739
215805.000			30.123			-2.738
215904.000			30.123			-2.738
216004.000			30.122			-2.738
216105.000			30.121			-2.738
216204.000			30.123			-2.738
216304.000			30.123			-2.738
216403.000			30.122			-2.738
216504.000			30.121			-2.738
216605.000			30.121			-2.738
216704.000			30.121			-2.738
216804.000			30.122			-2.738
216905.000			30.120			-2.738
217004.000			30.119			-2.738
217104.000			30.119			-2.738
217205.000			30.120			-2.738
217303.000			30.119			-2.738
217404.000			30.119			-2.738
217505.000			30.118			-2.738
217604.000			30.119			-2.738
217704.000			30.117			-2.738
217805.000			30.117			-2.738
217904.000			30.116			-2.738
218003.000			30.117			-2.738
218105.000			30.116			-2.738
218204.000			30.115			-2.738
218304.000			30.114			-2.738
218405.000			30.115			-2.738
218504.000			30.115			-2.738
218604.000			30.116			-2.738
218705.000			30.116			-2.738
218804.000			30.113			-2.738
218903.000			30.112			-2.737
219005.000			30.112			-2.737
219104.000			30.111			-2.737
219204.000			30.112			-2.737
219305.000			30.112			-2.737
219404.000			30.112			-2.737
219504.000			30.111			-2.737
219603.000			30.110			-2.737
219704.000			30.110			-2.737
219805.000			30.109			-2.737
219904.000			30.109			-2.737
220004.000			30.109			-2.737
220105.000			30.109			-2.737
220204.000			30.109			-2.737
220304.000			30.109			-2.737
220405.000			30.108			-2.737
220503.000			30.108			-2.737
220604.000			30.108			-2.737
220705.000			30.107			-2.737
220804.000			30.107			-2.737
220904.000			30.106			-2.737
221005.000			30.106			-2.737
221104.000			30.106			-2.737
221203.000			30.104			-2.737
221305.000			30.105			-2.737
221404.000			30.104			-2.737
221504.000			30.105			-2.737
221605.000			30.104			-2.737
221704.000			30.104			-2.737
221804.000			30.104			-2.737
221904.000			30.103			-2.737
222004.000			30.104			-2.737
222104.000			30.104			-2.737
222205.000			30.102			-2.737
222304.000			30.102			-2.737
222404.000			30.102			-2.737
222505.000			30.101			-2.736
222603.000			30.101			-2.736
222704.000			30.101			-2.736
222803.000			30.100			-2.736
222904.000			30.100			-2.736
223005.000			30.100			-2.736
223104.000			30.100			-2.736
223204.000			30.100			-2.736
223305.000			30.099			-2.736
223404.000			30.098			-2.736
223503.000			30.097			-2.736
223605.000			30.097			-2.736
223704.000			30.098			-2.736
223804.000			30.098			-2.736
223905.000			30.097			-2.736
224004.000			30.096			-2.736
224104.000			30.096			-2.736
224205.000			30.096			-2.736
224304.000			30.095			-2.736
224403.000			30.096			-2.736
224505.000			30.095			-2.736
224604.000			30.094			-2.736
224704.000			30.095			-2.736
224805.000			30.093			-2.736
224904.000			30.093			-2.736
225004.000			30.092			-2.736
225104.000			30.092			-2.736
225204.000			30.092			-2.736
225303.000			30.092			-2.736
225405.000			30.091			-2.736
225504.000			30.089			-2.735
225604.000			30.089			-2.735
225705.000			30.090			-2.735
225804.000			30.090			-2.735
225904.000			30.090			-2.735
226003.000			30.089			-2.735
226104.000			30.089			-2.735
226205.000			30.088			-2.735
226304.000			30.089			-2.735
226404.000			30.089			-2.735
226505.000			30.088			-2.735
226604.000			30.087			-2.735
226704.000			30.087			-2.735
226805.000			30.086			-2.735
226903.000			30.086			-2.735
227004.000			30.086			-2.735
227105.000			30.087			-2.735
227204.000			30.086			-2.735
227304.000			30.085			-2.735
227405.000			30.085			-2.735
227504.000			30.085			-2.735
227604.000			30.083			-2.735
227705.000			30.084			-2.735
227803.000			30.083			-2.735
227904.000			30.083			-2.735
228005.000			30.083			-2.735
228104.000			30.083			-2.735
228204.000			30.083			-2.735
228305.000			30.082			-2.735
228404.000			30.081			-2.735
228503.000			30.081			-2.735
228605.000			30.080			-2.735
228703.000			30.081			-2.735
228804.000			30.081			-2.735
228905.000			30.080			-2.735
229004.000			30.080			-2.735
229104.000			30.080			-2.735
229204.000			30.080			-2.735
229304.000			30.079			-2.734
229403.000			30.078			-2.734
229504.000			30.078			-2.734
229603.000			30.077			-2.734
229705.000			30.077			-2.734
229804.000			30.077			-2.734
229904.000			30.076			-2.734
230005.000			30.076			-2.734
230104.000			30.077			-2.734
230204.000			30.076			-2.734
230304.000			30.075			-2.734
230404.000			30.075			-2.734
230504.000			30.076			-2.734
230605.000			30.073			-2.734
230704.000			30.073			-2.734
230804.000			30.074			-2.734
230905.000			30.073			-2.734
231003.000			30.073			-2.734
231104.000			30.072			-2.734
231205.000			30.072			-2.734
231304.000			30.071			-2.734
231404.000			30.072			-2.734
231505.000			30.071			-2.734
231604.000			30.071			-2.734
231704.000			30.071			-2.734
231805.000			30.072			-2.734
231903.000			30.071			-2.734
232004.000			30.070			-2.734
232105.000			30.070			-2.734
232204.000			30.069			-2.734
232304.000			30.068			-2.733
232404.000			30.069			-2.734
232504.000			30.070			-2.734
232603.000			30.069			-2.734
232704.000			30.068			-2.733
232803.000			30.068			-2.733
232905.000			30.067			-2.733
233004.000			30.066			-2.733
233104.000			30.066			-2.733
233205.000			30.067			-2.733
233304.000			30.066			-2.733
233404.000			30.066			-2.733
233504.000			30.065			-2.733
233604.000			30.065			-2.733
233704.000			30.065			-2.733
233805.000			30.064			-2.733
233904.000			30.064			-2.733
234004.000			30.064			-2.733
234105.000			30.063			-2.733
234204.000			30.062			-2.733
234304.000			30.062			-2.733
234404.000			30.062			-2.733
234504.000			30.063			-2.733
234604.000			30.062			-2.733
234705.000			30.062			-2.733
234804.000			30.062			-2.733
234904.000			30.062			-2.733
235005.000			30.061			-2.733
235103.000			30.060			-2.733
235204.000			30.059			-2.733
235305.000			30.060			-2.733
235404.000			30.060			-2.733
235504.000			30.059			-2.733
235604.000			30.058			-2.733
235704.000			30.058			-2.733
235805.000			30.057			-2.732
235904.000			30.058			-2.733
236003.000			30.058			-2.733
236105.000			30.057			-2.732
236204.000			30.056			-2.732
236304.000			30.056			-2.732
236405.000			30.055			-2.732
236504.000			30.054			-2.732
236604.000			30.055			-2.732
236705.000			30.055			-2.732
236804.000			30.055			-2.732
236903.000			30.054			-2.732
237005.000			30.054			-2.732
237104.000			30.053			-2.732
237204.000			30.052			-2.732
237305.000			30.053			-2.732
237404.000			30.054			-2.732
237504.000			30.054			-2.732
237604.000			30.053			-2.732
237704.000			30.052			-2.732
237803.000			30.051			-2.732
237905.000			30.051			-2.732
238004.000			30.051			-2.732
238104.000			30.050			-2.732
238205.000			30.051			-2.732
238304.000			30.051			-2.732
238404.000			30.051			-2.732
238504.000			30.051			-2.732
238604.000			30.049			-2.732
238704.000			30.048			-2.732
238804.000			30.048			-2.732
238904.000			30.048			-2.732
239005.000			30.047			-2.732
239104.000			30.047			-2.732
239203.000			30.047			-2.732
239305.000			30.046			-2.731
239403.000			30.046			-2.731
239504.000			30.047			-2.732
239605.000			30.048			-2.732
239704.000			30.047			-2.732
239804.000			30.047			-2.732
239905.000			30.045			-2.731
240004.000			30.045			-2.731
240103.000			30.046			-2.731
240205.000			30.046			-2.731
240304.000			30.045			-2.731
240404.000			30.044			-2.731
240505.000			30.044			-2.731
240604.000			30.042			-2.731
240704.000			30.042			-2.731
240805.000			30.041			-2.731
240904.000			30.042			-2.731
241003.000			30.043			-2.731
241105.000			30.042			-2.731
241204.000			30.041			-2.731
241304.000			30.040			-2.731
241405.000			30.040			-2.731
241504.000			30.040			-2.731
241604.000			30.040			-2.731
241704.000			30.039			-2.731
241804.000			30.039			-2.731
241904.000			30.039			-2.731
242004.000			30.039			-2.731
242104.000			30.040			-2.731
242205.000			30.038			-2.731
242304.000			30.038			-2.731
242403.000			30.037			-2.731
242505.000			30.036			-2.731
242603.000			30.035			-2.730
242704.000			30.035			-2.730
242805.000			30.036			-2.731
242904.000			30.036			-2.731
243004.000			30.035			-2.730
243105.000			30.035			-2.730
243204.000			30.036			-2.731
243303.000			30.035			-2.730
243405.000			30.034			-2.730
243504.000			30.034			-2.730
243604.000			30.033			-2.730
243705.000			30.033			-2.730
243804.000			30.034			-2.730
243904.000			30.033			-2.730
244004.000			30.031			-2.730
244104.000			30.030			-2.730
244203.000			30.032			-2.730
244305.000			30.032			-2.730
244404.000			30.031			-2.730
244504.000			30.030			-2.730
244605.000			30.031			-2.730
244704.000			30.030			-2.730
244804.000			30.030			-2.730
244904.000			30.029			-2.730
245004.000			30.029			-2.730
245104.000			30.029			-2.730
245204.000			30.028			-2.730
245304.000			30.028			-2.730
245405.000			30.028			-2.730
245504.000			30.027			-2.730
245603.000			30.027			-2.730
245705.000			30.027			-2.730
245804.000			30.026			-2.730
245904.000			30.027			-2.730
246005.000			30.027			-2.730
246104.000			30.027			-2.730
246204.000			30.026			-2.730
246305.000			30.026			-2.730
246404.000			30.025			-2.730
246503.000			30.024			-2.729
246605.000			30.024			-2.729
246704.000			30.024			-2.729
246804.000			30.024			-2.729
246905.000			30.024			-2.729
247004.000			30.024			-2.729
247104.000			30.024			-2.729
247204.000			30.022			-2.729
247304.000			30.022			-2.729
247404.000			30.021			-2.729
247505.000			30.021			-2.729
247604.000			30.021			-2.729
247704.000			30.021			-2.729
247805.000			30.021			-2.729
247904.000			30.021			-2.729
248004.000			30.021			-2.729
248104.000			30.021			-2.729
248204.000			30.020			-2.729
248304.000			30.020			-2.729
248404.000			30.020			-2.729
248504.000			30.018			-2.729
248605.000			30.019			-2.729
248704.000			30.017			-2.729
248803.000			30.017			-2.729
248905.000			30.017			-2.729
249004.000			30.017			-2.729
249104.000			30.017			-2.729
249205.000			30.017			-2.729
249304.000			30.017			-2.729
249404.000			30.016			-2.729
249505.000			30.016			-2.729
249604.000			30.015			-2.729
249703.000			30.015			-2.729
249805.000			30.014			-2.729
249904.000			30.013			-2.728
250004.000			30.013			-2.728
250105.000			30.013			-2.728
250204.000			30.013			-2.728
250304.000			30.013			-2.728
250404.000			30.013			-2.728
250504.000			30.013			-2.728
250603.000			30.012			-2.728
250705.000			30.012			-2.728
250804.000			30.013			-2.728
250904.000			30.013			-2.728
251005.000			30.011			-2.728
251104.000			30.011			-2.728
251204.000			30.012			-2.728
251304.000			30.011			-2.728
251404.000			30.011			-2.728
251504.000			30.010			-2.728
251604.000			30.009			-2.728
251704.000			30.008			-2.728
251805.000			30.009			-2.728
251904.000			30.009			-2.728
252003.000			30.008			-2.728
252105.000			30.007			-2.728
252204.000			30.007			-2.728
252304.000			30.007			-2.728
252405.000			30.007			-2.728
252504.000			30.007			-2.728
252604.000			30.006			-2.728
252705.000			30.006			-2.728
252804.000			30.006			-2.728
252903.000			30.005			-2.728
253005.000			30.005			-2.728
253104.000			30.005			-2.728
253204.000			30.004			-2.728
253305.000			30.004			-2.728
253404.000			30.005			-2.728
253504.000			30.005			-2.728
253604.000			30.003			-2.728
253704.000			30.003			-2.728
253804.000			30.002			-2.727
253905.000			30.002			-2.727
254004.000			30.002			-2.727
254104.000			30.003			-2.728
254205.000			30.002			-2.727
254304.000			30.003			-2.728
254404.000			30.002			-2.727
254504.000			30.001			-2.727
254604.000			30.002			-2.727
254704.000			30.001			-2.727
254804.000			30.000			-2.727
254904.000			30.000			-2.727
255005.000			29.999			-2.727
255104.000			29.999			-2.727
255203.000			29.999			-2.727
255305.000			29.999			-2.727
255403.000			29.999			-2.727
255504.000			29.998			-2.727
255605.000			29.998			-2.727
255704.000			29.998			-2.727
255804.000			29.997			-2.727
255905.000			29.995			-2.727
256004.000			29.995			-2.727
256104.000			29.996			-2.727
256205.000			29.997			-2.727
256303.000			29.996			-2.727
256404.000			29.996			-2.727
256504.000			29.996			-2.727
256604.000			29.995			-2.727
256704.000			29.994			-2.727
256805.000			29.994			-2.727
256904.000			29.994			-2.727
257004.000			29.994			-2.727
257105.000			29.995			-2.727
257204.000			29.993			-2.727
257304.000			29.992			-2.727
257404.000			29.992			-2.727
257504.000			29.993			-2.727
257604.000			29.993			-2.727
257705.000			29.991			-2.726
257804.000			29.991			-2.726
257904.000			29.990			-2.726
258005.000			29.991			-2.726
258104.000			29.992			-2.727
258205.000			29.991			-2.726
258304.000			29.990			-2.726
258404.000			29.989			-2.726
258504.000			29.989			-2.726
258604.000			29.989			-2.726
258704.000			29.988			-2.726
258805.000			29.988			-2.726
258904.000			29.987			-2.726
259004.000			29.988			-2.726
259105.000			29.988			-2.726
259204.000			29.988			-2.726
259304.000			29.988			-2.726
259404.000			29.986			-2.726
259504.000			29.985			-2.726
259603.000			29.986			-2.726
259705.000			29.984			-2.726
259804.000			29.984			-2.726
259904.000			29.985			-2.726
260005.000			29.984			-2.726
260104.000			29.984			-2.726
260204.000			29.983			-2.726
260305.000			29.983			-2.726
260404.000			29.983			-2.726
260503.000			29.984			-2.726
260605.000			29.984			-2.726
260703.000			29.983			-2.726
260804.000			29.982			-2.726
260905.000			29.982			-2.726
261004.000			29.981			-2.726
261104.000			29.981			-2.726
261204.000			29.981			-2.726
261304.000			29.981			-2.726
261405.000			29.980			-2.725
261504.000			29.980			-2.725
261603.000			29.980			-2.725
261705.000			29.979			-2.725
261804.000			29.979			-2.725
261904.000			29.979			-2.725
262005.000			29.978			-2.725
262104.000			29.979			-2.725
262204.000			29.978			-2.725
262305.000			29.978			-2.725
262404.000			29.979			-2.725
262503.000			29.978			-2.725
262605.000			29.978			-2.725
262703.000			29.978			-2.725
262804.000			29.978			-2.725
262905.000			29.977			-2.725
263004.000			29.976			-2.725
263104.000			29.976			-2.725
263205.000			29.975			-2.725
263304.000			29.975			-2.725
263404.000			29.976			-2.725
263505.000			29.976			-2.725
263603.000			29.975			-2.725
263704.000			29.973			-2.725
263805.000			29.974			-2.725
263904.000			29.973			-2.725
264004.000			29.972			-2.725
264105.000			29.972			-2.725
264204.000			29.972			-2.725
264304.000			29.972			-2.725
264405.000			29.972			-2.725
264503.000			29.972			-2.725
264605.000			29.973			-2.725
264703.000			29.971			-2.725
264804.000			29.970			-2.725
264905.000			29.970			-2.725
265004.000			29.970			-2.725
265104.000			29.969			-2.724
265205.000			29.969			-2.724
265304.000			29.969			-2.724
265404.000			29.970			-2.725
265505.000			29.970			-2.725
265603.000			29.970			-2.725
265704.000			29.969			-2.724
265805.000			29.968			-2.724
265904.000			29.967			-2.724
266004.000			29.967			-2.724
266105.000			29.967			-2.724
266204.000			29.966			-2.724
266304.000			29.967			-2.724
266405.000			29.966			-2.724
266503.000			29.967			-2.724
266604.000			29.966			-2.724
266704.000			29.965			-2.724
266804.000			29.965			-2.724
266904.000			29.965			-2.724
267005.000			29.964			-2.724
267104.000			29.964			-2.724
267204.000			29.965			-2.724
267305.000			29.965			-2.724
267404.000			29.964			-2.724
267504.000			29.964			-2.724
267603.000			29.963			-2.724
267704.000			29.961			-2.724
267805.000			29.962			-2.724
267904.000			29.962			-2.724
268004.000			29.961			-2.724
268105.000			29.961			-2.724
268204.000			29.961			-2.724
268304.000			29.961			-2.724
268405.000			29.960			-2.724
268504.000			29.960			-2.724
268604.000			29.961			-2.724
268704.000			29.960			-2.724
268804.000			29.960			-2.724
268904.000			29.960			-2.724
269005.000			29.960			-2.724
269104.000			29.960			-2.724
269204.000			29.959			-2.724
269305.000			29.958			-2.723
269404.000			29.957			-2.723
269504.000			29.958			-2.723
269604.000			29.957			-2.723
269704.000			29.957			-2.723
269803.000			29.957			-2.723
269905.000			29.957			-2.723
270004.000			29.956			-2.723
270104.000			29.956			-2.723
270205.000			29.957			-2.723
270304.000			29.957			-2.723
270404.000			29.955			-2.723
270505.000			29.955			-2.723
270604.000			29.954			-2.723
270703.000			29.955			-2.723
270805.000			29.955			-2.723
270904.000			29.953			-2.723
271005.000			29.953			-2.723
271104.000			29.953			-2.723
271204.000			29.952			-2.723
271305.000			29.953			-2.723
271404.000			29.952			-2.723
271504.000			29.952			-2.723
271604.000			29.952			-2.723
271704.000			29.951			-2.723
271803.000			29.952			-2.723
271905.000			29.951			-2.723
272004.000			29.951			-2.723
272104.000			29.950			-2.723
272205.000			29.950			-2.723
272304.000			29.948			-2.723
272404.000			29.949			-2.723
272504.000			29.949			-2.723
272604.000			29.949			-2.723
272703.000			29.949			-2.723
272805.000			29.950			-2.723
272904.000			29.948			-2.723
273004.000			29.948			-2.723
273105.000			29.947			-2.722
273204.000			29.947			-2.722
273304.000			29.947			-2.722
273405.000			29.946			-2.722
273504.000			29.946			-2.722
273603.000			29.946			-2.722
273705.000			29.946			-2.722
273804.000			29.945			-2.722
273904.000			29.945			-2.722
274005.000			29.944			-2.722
274104.000			29.944			-2.722
274205.000			29.943			-2.722
274304.000			29.944			-2.722
274404.000			29.945			-2.722
274504.000			29.944			-2.722
274604.000			29.944			-2.722
274703.000			29.943			-2.722
274805.000			29.942			-2.722
274904.000			29.943			-2.722
275004.000			29.943			-2.722
275105.000			29.941			-2.722
275204.000			29.942			-2.722
275304.000			29.942			-2.722
275404.000			29.942			-2.722
275504.000			29.941			-2.722
275603.000			29.940			-2.722
275705.000			29.940			-2.722
275804.000			29.940			-2.722
275904.000			29.940			-2.722
276005.000			29.939			-2.722
276104.000			29.939			-2.722
276204.000			29.939			-2.722
276305.000			29.939			-2.722
276404.000			29.939			-2.722
276503.000			29.938			-2.722
276605.000			29.938			-2.722
276704.000			29.936			-2.721
276804.000			29.937			-2.722
276905.000			29.937			-2.722
277004.000			29.937			-2.722
277104.000			29.936			-2.721
277204.000			29.937			-2.722
277304.000			29.937			-2.722
277405.000			29.936			-2.721
277504.000			29.936			-2.721
277603.000			29.934			-2.721
277705.000			29.934			-2.721
277804.000			29.934			-2.721
277904.000			29.934			-2.721
278005.000			29.933			-2.721
278104.000			29.934			-2.721
278204.000			29.934			-2.721
278305.000			29.934			-2.721
278404.000			29.934			-2.721
278503.000			29.934			-2.721
278605.000			29.934			-2.721
278703.000			29.933			-2.721
278804.000			29.933			-2.721
278905.000			29.932			-2.721
279004.000			29.931			-2.721
279104.000			29.932			-2.721
279205.000			29.931			-2.721
279304.000			29.932			-2.721
279404.000			29.931			-2.721
279505.000			29.930			-2.721
279603.000			29.930			-2.721
279704.000			29.930			-2.721
279805.000			29.929			-2.721
279904.000			29.928			-2.721
280004.000			29.929			-2.721
280105.000			29.930			-2.721
280204.000			29.929			-2.721
280304.000			29.926			-2.721
280405.000			29.927			-2.721
280504.000			29.927			-2.721
280605.000			29.928			-2.721
280703.000			29.928			-2.721
280804.000			29.928			-2.721
280905.000			29.927			-2.721
281004.000			29.926			-2.721
281104.000			29.926			-2.721
281205.000			29.925			-2.720
281304.000			29.925			-2.720
281404.000			29.926			-2.721
281505.000			29.926			-2.721
281603.000			29.924			-2.720
281704.000			29.925			-2.720
281804.000			29.924			-2.720
281904.000			29.923			-2.720
282004.000			29.923			-2.720
282105.000			29.923			-2.720
282204.000			29.922			-2.720
282304.000			29.922			-2.720
282405.000			29.921			-2.720
282504.000			29.922			-2.720
282604.000			29.922			-2.720
282704.000			29.921			-2.720
282804.000			29.921			-2.720
282904.000			29.920			-2.720
283005.000			29.921			-2.720
283104.000			29.921			-2.720
283204.000			29.920			-2.720
283305.000			29.920			-2.720
283404.000			29.920			-2.720
283504.000			29.920			-2.720
283603.000			29.920			-2.720
283704.000			29.919			-2.720
283805.000			29.919			-2.720
283904.000			29.918			-2.720
284004.000			29.919			-2.720
284105.000			29.919			-2.720
284204.000			29.917			-2.720
284304.000			29.917			-2.720
284405.000			29.917			-2.720
284503.000			29.917			-2.720
284604.000			29.916			-2.720
284704.000			29.916			-2.720
284804.000			29.916			-2.720
284904.000			29.915			-2.720
285005.000			29.915			-2.720
285104.000			29.915			-2.720
285204.000			29.915			-2.720
285305.000			29.915			-2.720
285404.000			29.915			-2.720
285504.000			29.916			-2.720
285604.000			29.915			-2.720
285704.000			29.914			-2.719
285804.000			29.914			-2.719
285905.000			29.914			-2.719
286004.000			29.912			-2.719
286104.000			29.913			-2.719
286205.000			29.913			-2.719
286304.000			29.913			-2.719
286404.000			29.913			-2.719
286504.000			29.911			-2.719
286604.000			29.910			-2.719
286704.000			29.909			-2.719
286804.000			29.909			-2.719
286904.000			29.910			-2.719
287005.000			29.911			-2.719
287104.000			29.911			-2.719
287204.000			29.910			-2.719
287305.000			29.910			-2.719
287403.000			29.909			-2.719
287504.000			29.910			-2.719
287604.000			29.908			-2.719
287704.000			29.909			-2.719
287804.000			29.909			-2.719
287905.000			29.909			-2.719
288004.000			29.908			-2.719
288104.000			29.908			-2.719
288205.000			29.907			-2.719
288304.000			29.906			-2.719
288404.000			29.906			-2.719
288504.000			29.906			-2.719
288604.000			29.906			-2.719
288704.000			29.906			-2.719
288805.000			29.905			-2.719
288904.000			29.906			-2.719
289004.000			29.906			-2.719
289105.000			29.906			-2.719
289204.000			29.906			-2.719
289304.000			29.906			-2.719
289404.000			29.904			-2.719
289504.000			29.904			-2.719
289603.000			29.904			-2.719
289705.000			29.902			-2.718
289804.000			29.903			-2.718
289904.000			29.904			-2.719
290005.000			29.903			-2.718
290104.000			29.902			-2.718
290205.000			29.902			-2.718
290304.000			29.901			-2.718
290404.000			29.901			-2.718
290504.000			29.901			-2.718
290604.000			29.900			-2.718
290704.000			29.900			-2.718
290805.000			29.900			-2.718
290904.000			29.900			-2.718
291004.000			29.899			-2.718
291105.000			29.899			-2.718
291204.000			29.898			-2.718
291304.000			29.899			-2.718
291404.000			29.899			-2.718
291504.000			29.899			-2.718
291603.000			29.898			-2.718
291705.000			29.897			-2.718
291804.000			29.898			-2.718
291904.000			29.899			-2.718
292005.000			29.898			-2.718
292104.000			29.898			-2.718
292204.000			29.898			-2.718
292305.000			29.896			-2.718
292404.000			29.894			-2.718
292503.000			29.896			-2.718
292605.000			29.895			-2.718
292704.000			29.895			-2.718
292804.000			29.895			-2.718
292905.000			29.896			-2.718
293004.000			29.895			-2.718
293104.000			29.894			-2.718
293204.000			29.894			-2.718
293304.000			29.893			-2.718
293405.000			29.893			-2.718
293504.000			29.893			-2.718
293603.000			29.892			-2.717
293705.000			29.892			-2.717
293804.000			29.892			-2.717
293904.000			29.892			-2.717
294005.000			29.892			-2.717
294104.000			29.893			-2.718
294204.000			29.891			-2.717
294305.000			29.889			-2.717
294404.000			29.890			-2.717
294503.000			29.891			-2.717
294605.000			29.890			-2.717
294703.000			29.889			-2.717
294804.000			29.888			-2.717
294905.000			29.889			-2.717
295004.000			29.889			-2.717
295104.000			29.889			-2.717
295205.000			29.888			-2.717
295304.000			29.888			-2.717
295404.000			29.887			-2.717
295505.000			29.887			-2.717
295603.000			29.887			-2.717
295704.000			29.887			-2.717
295804.000			29.887			-2.717
295904.000			29.886			-2.717
296004.000			29.886			-2.717
296105.000			29.885			-2.717
296204.000			29.884			-2.717
296304.000			29.884			-2.717
296405.000			29.885			-2.717
296504.000			29.884			-2.717
296605.000			29.884			-2.717
296703.000			29.885			-2.717
296804.000			29.885			-2.717
296904.000			29.885			-2.717
297004.000			29.885			-2.717
297104.000			29.885			-2.717
297205.000			29.885			-2.717
297304.000			29.885			-2.717
297404.000			29.883			-2.717
297505.000			29.882			-2.717
297604.000			29.883			-2.717
297704.000			29.884			-2.717
297804.000			29.882			-2.717
297904.000			29.882			-2.717
298003.000			29.882			-2.717
298105.000			29.882			-2.717
298204.000			29.881			-2.716
298304.000			29.880			-2.716
298405.000			29.880			-2.716
298504.000			29.880			-2.716
298604.000			29.878			-2.716
298705.000			29.879			-2.716
298804.000			29.879			-2.716
298903.000			29.879			-2.716
299005.000			29.879			-2.716
299103.000			29.879			-2.716
299204.000			29.878			-2.716
299305.000			29.878			-2.716
299404.000			29.878			-2.716
299504.000			29.877			-2.716
299604.000			29.877			-2.716
299704.000			29.877			-2.716
299805.000			29.876			-2.716
299904.000			29.876			-2.716
