# Acquired on 26/01/2024 14:05:02 
# SPIDER: Creep_-8mm_GRPCNT1454A-2
# CREEP MEASUREMENT

# time [ms]		force [N]		stiffness [N/mm]
0.000			33.566			-4.196
104.000			34.288			-4.286
205.000			34.346			-4.293
304.000			33.767			-4.221
404.000			33.560			-4.195
505.000			33.388			-4.174
604.000			33.241			-4.155
704.000			33.111			-4.139
804.000			32.995			-4.124
904.000			32.891			-4.111
1004.000			32.712			-4.089
1105.000			32.632			-4.079
1204.000			32.558			-4.070
1303.000			32.489			-4.061
1405.000			32.424			-4.053
1504.000			32.363			-4.045
1604.000			32.306			-4.038
1705.000			32.201			-4.025
1804.000			32.151			-4.019
1904.000			32.104			-4.013
2003.000			32.059			-4.007
2104.000			32.017			-4.002
2205.000			31.976			-3.997
2304.000			31.936			-3.992
2404.000			31.899			-3.987
2504.000			31.827			-3.978
2604.000			31.793			-3.974
2704.000			31.760			-3.970
2805.000			31.728			-3.966
2904.000			31.697			-3.962
3004.000			31.669			-3.959
3105.000			31.640			-3.955
3203.000			31.586			-3.948
3304.000			31.559			-3.945
3405.000			31.532			-3.942
3504.000			31.506			-3.938
3604.000			31.482			-3.935
3704.000			31.458			-3.932
3804.000			31.434			-3.929
3903.000			31.389			-3.924
4005.000			31.368			-3.921
4104.000			31.347			-3.918
4204.000			31.326			-3.916
4305.000			31.306			-3.913
4403.000			31.286			-3.911
4504.000			31.266			-3.908
4605.000			31.227			-3.903
4704.000			31.209			-3.901
4804.000			31.191			-3.899
4905.000			31.174			-3.897
5004.000			31.157			-3.895
5103.000			31.139			-3.892
5205.000			31.122			-3.890
5304.000			31.107			-3.888
5405.000			31.073			-3.884
5504.000			31.058			-3.882
5603.000			31.043			-3.880
5705.000			31.028			-3.878
5804.000			31.013			-3.877
5904.000			30.999			-3.875
6005.000			30.984			-3.873
6104.000			30.957			-3.870
6204.000			30.942			-3.868
6304.000			30.928			-3.866
6404.000			30.915			-3.864
6504.000			30.901			-3.863
6605.000			30.889			-3.861
6704.000			30.876			-3.860
6803.000			30.850			-3.856
6905.000			30.838			-3.855
7004.000			30.826			-3.853
7104.000			30.815			-3.852
7205.000			30.803			-3.850
7304.000			30.790			-3.849
7404.000			30.779			-3.847
7504.000			30.768			-3.846
7604.000			30.745			-3.843
7704.000			30.734			-3.842
7805.000			30.722			-3.840
7904.000			30.712			-3.839
8003.000			30.702			-3.838
8105.000			30.691			-3.836
8204.000			30.681			-3.835
8304.000			30.660			-3.832
8405.000			30.650			-3.831
8504.000			30.640			-3.830
8605.000			30.630			-3.829
8703.000			30.621			-3.828
8804.000			30.611			-3.826
8905.000			30.602			-3.825
9004.000			30.584			-3.823
9104.000			30.575			-3.822
9205.000			30.565			-3.821
9304.000			30.556			-3.820
9403.000			30.548			-3.818
9505.000			30.539			-3.817
9604.000			30.529			-3.816
9704.000			30.513			-3.814
9805.000			30.503			-3.813
9903.000			30.495			-3.812
10004.000			30.487			-3.811
10105.000			30.478			-3.810
10204.000			30.470			-3.809
10304.000			30.463			-3.808
10405.000			30.455			-3.807
10504.000			30.439			-3.805
10603.000			30.431			-3.804
10705.000			30.422			-3.803
10804.000			30.416			-3.802
10904.000			30.408			-3.801
11005.000			30.400			-3.800
11104.000			30.391			-3.799
11204.000			30.376			-3.797
11304.000			30.369			-3.796
11404.000			30.362			-3.795
11504.000			30.356			-3.794
11604.000			30.349			-3.794
11704.000			30.340			-3.793
11804.000			30.333			-3.792
11904.000			30.319			-3.790
12004.000			30.313			-3.789
12105.000			30.306			-3.788
12204.000			30.299			-3.787
12304.000			30.293			-3.787
12405.000			30.286			-3.786
12503.000			30.279			-3.785
12604.000			30.266			-3.783
12705.000			30.260			-3.782
12804.000			30.253			-3.782
12904.000			30.246			-3.781
13005.000			30.239			-3.780
13104.000			30.233			-3.779
13203.000			30.227			-3.778
13305.000			30.221			-3.778
13404.000			30.210			-3.776
13504.000			30.204			-3.776
13605.000			30.199			-3.775
13703.000			30.193			-3.774
13804.000			30.186			-3.773
13905.000			30.179			-3.772
14004.000			30.172			-3.772
14104.000			30.161			-3.770
14205.000			30.155			-3.769
14304.000			30.150			-3.769
14403.000			30.145			-3.768
14505.000			30.139			-3.767
14604.000			30.133			-3.767
14704.000			30.128			-3.766
14805.000			30.117			-3.765
14904.000			30.111			-3.764
15005.000			30.105			-3.763
15103.000			30.100			-3.763
15204.000			30.095			-3.762
15305.000			30.089			-3.761
15404.000			30.084			-3.760
15504.000			30.079			-3.760
15604.000			30.068			-3.758
15704.000			30.063			-3.758
15803.000			30.057			-3.757
15905.000			30.052			-3.757
16004.000			30.048			-3.756
16104.000			30.043			-3.755
16205.000			30.037			-3.755
16303.000			30.028			-3.753
16404.000			30.023			-3.753
16505.000			30.018			-3.752
16604.000			30.013			-3.752
16704.000			30.007			-3.751
16805.000			30.002			-3.750
16904.000			29.998			-3.750
17003.000			29.988			-3.748
17105.000			29.983			-3.748
17204.000			29.979			-3.747
17304.000			29.973			-3.747
17405.000			29.969			-3.746
17504.000			29.965			-3.746
17604.000			29.960			-3.745
17704.000			29.951			-3.744
17804.000			29.946			-3.743
17904.000			29.942			-3.743
18004.000			29.938			-3.742
18104.000			29.932			-3.742
18205.000			29.928			-3.741
18304.000			29.923			-3.740
18403.000			29.918			-3.740
18505.000			29.910			-3.739
18604.000			29.905			-3.738
18704.000			29.901			-3.738
18805.000			29.898			-3.737
18904.000			29.893			-3.737
19004.000			29.889			-3.736
19104.000			29.885			-3.736
19204.000			29.877			-3.735
19303.000			29.872			-3.734
19405.000			29.868			-3.733
19504.000			29.864			-3.733
19604.000			29.859			-3.732
19705.000			29.856			-3.732
19804.000			29.852			-3.732
19904.000			29.844			-3.730
20004.000			29.840			-3.730
20104.000			29.835			-3.729
20204.000			29.830			-3.729
20305.000			29.825			-3.728
20404.000			29.822			-3.728
20503.000			29.819			-3.727
20605.000			29.811			-3.726
20704.000			29.807			-3.726
20804.000			29.804			-3.726
20905.000			29.799			-3.725
21004.000			29.796			-3.725
21104.000			29.792			-3.724
21203.000			29.788			-3.724
21304.000			29.785			-3.723
21405.000			29.777			-3.722
21504.000			29.773			-3.722
21604.000			29.769			-3.721
21705.000			29.765			-3.721
21804.000			29.762			-3.720
21903.000			29.758			-3.720
22005.000			29.754			-3.719
22104.000			29.747			-3.718
22204.000			29.743			-3.718
22305.000			29.740			-3.717
22404.000			29.736			-3.717
22504.000			29.733			-3.717
22604.000			29.730			-3.716
22704.000			29.726			-3.716
22804.000			29.718			-3.715
22905.000			29.715			-3.714
23004.000			29.712			-3.714
23104.000			29.708			-3.714
23205.000			29.705			-3.713
23303.000			29.701			-3.713
23404.000			29.697			-3.712
23505.000			29.691			-3.711
23604.000			29.687			-3.711
23704.000			29.683			-3.710
23805.000			29.681			-3.710
23904.000			29.678			-3.710
24003.000			29.676			-3.709
24105.000			29.671			-3.709
24204.000			29.667			-3.708
24304.000			29.661			-3.708
24405.000			29.657			-3.707
24504.000			29.654			-3.707
24605.000			29.650			-3.706
24703.000			29.647			-3.706
24804.000			29.644			-3.706
24905.000			29.641			-3.705
25004.000			29.634			-3.704
25104.000			29.631			-3.704
25205.000			29.628			-3.704
25304.000			29.625			-3.703
25403.000			29.621			-3.703
25505.000			29.618			-3.702
25604.000			29.616			-3.702
25704.000			29.609			-3.701
25805.000			29.607			-3.701
25904.000			29.603			-3.700
26004.000			29.599			-3.700
26104.000			29.596			-3.700
26204.000			29.594			-3.699
26303.000			29.592			-3.699
26405.000			29.585			-3.698
26504.000			29.581			-3.698
26604.000			29.578			-3.697
26705.000			29.576			-3.697
26803.000			29.572			-3.697
26904.000			29.568			-3.696
27004.000			29.566			-3.696
27104.000			29.564			-3.695
27204.000			29.557			-3.695
27305.000			29.554			-3.694
27404.000			29.551			-3.694
27504.000			29.549			-3.694
27605.000			29.546			-3.693
27703.000			29.544			-3.693
27805.000			29.540			-3.693
27904.000			29.534			-3.692
28004.000			29.532			-3.691
28105.000			29.529			-3.691
28204.000			29.526			-3.691
28304.000			29.523			-3.690
28404.000			29.520			-3.690
28504.000			29.517			-3.690
28604.000			29.512			-3.689
28705.000			29.508			-3.689
28804.000			29.505			-3.688
28904.000			29.503			-3.688
29005.000			29.501			-3.688
29103.000			29.498			-3.687
29204.000			29.495			-3.687
29305.000			29.490			-3.686
29404.000			29.486			-3.686
29504.000			29.483			-3.685
29605.000			29.482			-3.685
29704.000			29.479			-3.685
29803.000			29.477			-3.685
29905.000			29.475			-3.684
30004.000			29.471			-3.684
30104.000			29.466			-3.683
30205.000			29.462			-3.683
30304.000			29.460			-3.682
30404.000			29.458			-3.682
30504.000			29.455			-3.682
30604.000			29.452			-3.682
30704.000			29.450			-3.681
30804.000			29.446			-3.681
30904.000			29.443			-3.680
31005.000			29.440			-3.680
31104.000			29.438			-3.680
31203.000			29.435			-3.679
31305.000			29.432			-3.679
31404.000			29.429			-3.679
31504.000			29.423			-3.678
31605.000			29.421			-3.678
31703.000			29.419			-3.677
31804.000			29.417			-3.677
31905.000			29.415			-3.677
32004.000			29.411			-3.676
32104.000			29.409			-3.676
32205.000			29.406			-3.676
32304.000			29.403			-3.675
32403.000			29.400			-3.675
32505.000			29.396			-3.675
32604.000			29.394			-3.674
32704.000			29.392			-3.674
32805.000			29.389			-3.674
32904.000			29.388			-3.674
33004.000			29.381			-3.673
33104.000			29.379			-3.672
33204.000			29.377			-3.672
33304.000			29.374			-3.672
33405.000			29.372			-3.671
33504.000			29.370			-3.671
33604.000			29.367			-3.671
33705.000			29.363			-3.670
33803.000			29.361			-3.670
33904.000			29.359			-3.670
34005.000			29.357			-3.670
34104.000			29.354			-3.669
34205.000			29.353			-3.669
34304.000			29.350			-3.669
34404.000			29.346			-3.668
34504.000			29.344			-3.668
34604.000			29.342			-3.668
34704.000			29.339			-3.667
34805.000			29.337			-3.667
34904.000			29.334			-3.667
35004.000			29.331			-3.666
35105.000			29.329			-3.666
35203.000			29.325			-3.666
35304.000			29.323			-3.665
35405.000			29.320			-3.665
35504.000			29.318			-3.665
35604.000			29.315			-3.664
35705.000			29.314			-3.664
35804.000			29.312			-3.664
35903.000			29.307			-3.663
36005.000			29.305			-3.663
36104.000			29.302			-3.663
36204.000			29.300			-3.663
36305.000			29.298			-3.662
36404.000			29.295			-3.662
36504.000			29.293			-3.662
36604.000			29.290			-3.661
36704.000			29.287			-3.661
36804.000			29.284			-3.661
36905.000			29.283			-3.660
37004.000			29.281			-3.660
37104.000			29.279			-3.660
37205.000			29.277			-3.660
37303.000			29.273			-3.659
37405.000			29.269			-3.659
37504.000			29.267			-3.658
37604.000			29.266			-3.658
37705.000			29.264			-3.658
37804.000			29.263			-3.658
37904.000			29.261			-3.658
38004.000			29.258			-3.657
38104.000			29.254			-3.657
38204.000			29.252			-3.657
38305.000			29.251			-3.656
38404.000			29.248			-3.656
38503.000			29.246			-3.656
38605.000			29.243			-3.655
38704.000			29.241			-3.655
38804.000			29.237			-3.655
38905.000			29.235			-3.654
39004.000			29.233			-3.654
39104.000			29.231			-3.654
39204.000			29.228			-3.654
39304.000			29.228			-3.653
39403.000			29.225			-3.653
39505.000			29.211			-3.651
39604.000			29.211			-3.651
39704.000			29.208			-3.651
39805.000			29.208			-3.651
39903.000			29.208			-3.651
40004.000			29.205			-3.651
40105.000			29.198			-3.650
40204.000			29.192			-3.649
40304.000			29.191			-3.649
40404.000			29.188			-3.649
40504.000			29.188			-3.648
40604.000			29.187			-3.648
40704.000			29.181			-3.648
40803.000			29.178			-3.647
40905.000			29.178			-3.647
41004.000			29.172			-3.647
41104.000			29.173			-3.647
41205.000			29.172			-3.647
41303.000			29.169			-3.646
41404.000			29.167			-3.646
41505.000			29.164			-3.646
41604.000			29.162			-3.645
41704.000			29.164			-3.645
41805.000			29.163			-3.645
41904.000			29.162			-3.645
42003.000			29.159			-3.645
42105.000			29.153			-3.644
42204.000			29.149			-3.644
42304.000			29.150			-3.644
42405.000			29.145			-3.643
42504.000			29.143			-3.643
42604.000			29.143			-3.643
42704.000			29.141			-3.643
42804.000			29.139			-3.642
42904.000			29.137			-3.642
43005.000			29.135			-3.642
43104.000			29.133			-3.642
43204.000			29.130			-3.641
43305.000			29.127			-3.641
43403.000			29.127			-3.641
43504.000			29.126			-3.641
43605.000			29.122			-3.640
43704.000			29.121			-3.640
43805.000			29.120			-3.640
43904.000			29.115			-3.639
44004.000			29.114			-3.639
44104.000			29.112			-3.639
44204.000			29.109			-3.639
44304.000			29.107			-3.638
44405.000			29.106			-3.638
44504.000			29.105			-3.638
44603.000			29.100			-3.638
44705.000			29.098			-3.637
44804.000			29.097			-3.637
44904.000			29.095			-3.637
45005.000			29.094			-3.637
45104.000			29.093			-3.637
45204.000			29.091			-3.636
45304.000			29.086			-3.636
45404.000			29.085			-3.636
45504.000			29.083			-3.635
45605.000			29.082			-3.635
45704.000			29.081			-3.635
45804.000			29.078			-3.635
45905.000			29.076			-3.635
46003.000			29.076			-3.634
46104.000			29.070			-3.634
46205.000			29.069			-3.634
46304.000			29.068			-3.633
46404.000			29.067			-3.633
46505.000			29.066			-3.633
46604.000			29.064			-3.633
46703.000			29.062			-3.633
46805.000			29.058			-3.632
46904.000			29.057			-3.632
47005.000			29.055			-3.632
47104.000			29.054			-3.632
47204.000			29.052			-3.631
47305.000			29.050			-3.631
47403.000			29.049			-3.631
47504.000			29.045			-3.631
47605.000			29.044			-3.631
47704.000			29.042			-3.630
47804.000			29.041			-3.630
47905.000			29.040			-3.630
48004.000			29.038			-3.630
48103.000			29.036			-3.629
48205.000			29.033			-3.629
48304.000			29.030			-3.629
48404.000			29.029			-3.629
48505.000			29.027			-3.628
48604.000			29.026			-3.628
48704.000			29.024			-3.628
48804.000			29.022			-3.628
48904.000			29.021			-3.628
49004.000			29.017			-3.627
49105.000			29.017			-3.627
49204.000			29.014			-3.627
49304.000			29.013			-3.627
49405.000			29.011			-3.626
49503.000			29.009			-3.626
49604.000			29.008			-3.626
49705.000			29.006			-3.626
49804.000			29.003			-3.625
49904.000			29.001			-3.625
50004.000			29.000			-3.625
50104.000			28.998			-3.625
50204.000			28.996			-3.625
50304.000			28.994			-3.624
50404.000			28.993			-3.624
50505.000			28.991			-3.624
50604.000			28.989			-3.624
50704.000			28.988			-3.623
50805.000			28.986			-3.623
50903.000			28.983			-3.623
51004.000			28.982			-3.623
51105.000			28.980			-3.622
51204.000			28.978			-3.622
51304.000			28.976			-3.622
51405.000			28.974			-3.622
51504.000			28.974			-3.622
51603.000			28.972			-3.622
51705.000			28.971			-3.621
51804.000			28.970			-3.621
51904.000			28.966			-3.621
52005.000			28.964			-3.620
52104.000			28.962			-3.620
52204.000			28.961			-3.620
52304.000			28.959			-3.620
52404.000			28.959			-3.620
52504.000			28.957			-3.620
52605.000			28.955			-3.619
52704.000			28.954			-3.619
52804.000			28.952			-3.619
52905.000			28.950			-3.619
53003.000			28.948			-3.618
53104.000			28.945			-3.618
53205.000			28.945			-3.618
53304.000			28.941			-3.618
53405.000			28.940			-3.617
53504.000			28.938			-3.617
53604.000			28.937			-3.617
53704.000			28.936			-3.617
53804.000			28.935			-3.617
53904.000			28.933			-3.617
54005.000			28.930			-3.616
54104.000			28.930			-3.616
54204.000			28.929			-3.616
54305.000			28.926			-3.616
54403.000			28.924			-3.616
54504.000			28.923			-3.615
54605.000			28.922			-3.615
54704.000			28.921			-3.615
54804.000			28.918			-3.615
54905.000			28.916			-3.614
55004.000			28.915			-3.614
55103.000			28.913			-3.614
55205.000			28.910			-3.614
55304.000			28.910			-3.614
55404.000			28.908			-3.614
55505.000			28.906			-3.613
55604.000			28.904			-3.613
55704.000			28.904			-3.613
55804.000			28.902			-3.613
55904.000			28.900			-3.612
56004.000			28.899			-3.612
56105.000			28.899			-3.612
56204.000			28.895			-3.612
56304.000			28.893			-3.612
56405.000			28.891			-3.611
56503.000			28.890			-3.611
56605.000			28.889			-3.611
56704.000			28.888			-3.611
56804.000			28.886			-3.611
56905.000			28.883			-3.610
57004.000			28.882			-3.610
57104.000			28.881			-3.610
57204.000			28.880			-3.610
57304.000			28.877			-3.610
57404.000			28.877			-3.610
57505.000			28.876			-3.610
57604.000			28.875			-3.609
57704.000			28.873			-3.609
57805.000			28.870			-3.609
57903.000			28.869			-3.609
58004.000			28.868			-3.608
58105.000			28.866			-3.608
58204.000			28.864			-3.608
58304.000			28.863			-3.608
58405.000			28.860			-3.607
58504.000			28.858			-3.607
58603.000			28.856			-3.607
58705.000			28.856			-3.607
58803.000			28.855			-3.607
58904.000			28.854			-3.607
59005.000			28.853			-3.607
59104.000			28.850			-3.606
59204.000			28.848			-3.606
59305.000			28.847			-3.606
59404.000			28.845			-3.606
59503.000			28.843			-3.605
59605.000			28.843			-3.605
59704.000			28.842			-3.605
59805.000			28.840			-3.605
59904.000			28.837			-3.605
60004.000			28.836			-3.605
60105.000			28.835			-3.604
60203.000			28.834			-3.604
60304.000			28.832			-3.604
60405.000			28.830			-3.604
60504.000			28.829			-3.604
60604.000			28.827			-3.603
60705.000			28.826			-3.603
60804.000			28.825			-3.603
60903.000			28.823			-3.603
61005.000			28.822			-3.603
61104.000			28.820			-3.603
61204.000			28.820			-3.602
61305.000			28.817			-3.602
61404.000			28.815			-3.602
61504.000			28.814			-3.602
61604.000			28.813			-3.602
61704.000			28.813			-3.602
61804.000			28.811			-3.601
61905.000			28.810			-3.601
62004.000			28.808			-3.601
62104.000			28.807			-3.601
62205.000			28.805			-3.601
62303.000			28.803			-3.600
62404.000			28.802			-3.600
62505.000			28.800			-3.600
62604.000			28.799			-3.600
62704.000			28.797			-3.600
62804.000			28.795			-3.599
62904.000			28.795			-3.599
63004.000			28.793			-3.599
63104.000			28.793			-3.599
63204.000			28.792			-3.599
63305.000			28.790			-3.599
63404.000			28.788			-3.599
63504.000			28.786			-3.598
63605.000			28.785			-3.598
63703.000			28.783			-3.598
63804.000			28.782			-3.598
63905.000			28.781			-3.598
64004.000			28.780			-3.597
64104.000			28.778			-3.597
64205.000			28.776			-3.597
64304.000			28.774			-3.597
64403.000			28.772			-3.597
64505.000			28.773			-3.597
64604.000			28.773			-3.597
64704.000			28.771			-3.596
64805.000			28.770			-3.596
64904.000			28.767			-3.596
65004.000			28.766			-3.596
65104.000			28.764			-3.596
65204.000			28.764			-3.595
65304.000			28.762			-3.595
65405.000			28.761			-3.595
65504.000			28.760			-3.595
65604.000			28.758			-3.595
65705.000			28.755			-3.594
65803.000			28.755			-3.594
65904.000			28.754			-3.594
66005.000			28.752			-3.594
66104.000			28.751			-3.594
66205.000			28.750			-3.594
66304.000			28.748			-3.593
66404.000			28.746			-3.593
66504.000			28.745			-3.593
66604.000			28.745			-3.593
66703.000			28.743			-3.593
66805.000			28.741			-3.593
66904.000			28.740			-3.592
67004.000			28.739			-3.592
67105.000			28.737			-3.592
67204.000			28.735			-3.592
67304.000			28.734			-3.592
67404.000			28.732			-3.592
67504.000			28.731			-3.591
67604.000			28.730			-3.591
67705.000			28.731			-3.591
67804.000			28.726			-3.591
67904.000			28.725			-3.591
68005.000			28.724			-3.591
68103.000			28.723			-3.590
68204.000			28.722			-3.590
68305.000			28.721			-3.590
68404.000			28.720			-3.590
68504.000			28.719			-3.590
68605.000			28.717			-3.590
68704.000			28.715			-3.589
68803.000			28.714			-3.589
68905.000			28.713			-3.589
69004.000			28.712			-3.589
69104.000			28.711			-3.589
69205.000			28.710			-3.589
69304.000			28.708			-3.589
69405.000			28.707			-3.588
69503.000			28.705			-3.588
69604.000			28.704			-3.588
69704.000			28.703			-3.588
69804.000			28.702			-3.588
69904.000			28.701			-3.588
70005.000			28.699			-3.587
70104.000			28.698			-3.587
70204.000			28.697			-3.587
70305.000			28.696			-3.587
70403.000			28.695			-3.587
70504.000			28.693			-3.587
70605.000			28.692			-3.586
70704.000			28.690			-3.586
70804.000			28.689			-3.586
70905.000			28.688			-3.586
71004.000			28.687			-3.586
71103.000			28.685			-3.586
71205.000			28.684			-3.586
71304.000			28.684			-3.586
71404.000			28.681			-3.585
71505.000			28.679			-3.585
71604.000			28.678			-3.585
71704.000			28.677			-3.585
71804.000			28.675			-3.584
71904.000			28.675			-3.584
72004.000			28.675			-3.584
72105.000			28.674			-3.584
72204.000			28.671			-3.584
72304.000			28.671			-3.584
72405.000			28.670			-3.584
72503.000			28.668			-3.584
72605.000			28.666			-3.583
72704.000			28.665			-3.583
72804.000			28.664			-3.583
72905.000			28.662			-3.583
73004.000			28.662			-3.583
73104.000			28.661			-3.583
73204.000			28.660			-3.583
73304.000			28.659			-3.582
73404.000			28.656			-3.582
73505.000			28.656			-3.582
73604.000			28.654			-3.582
73704.000			28.654			-3.582
73805.000			28.653			-3.582
73903.000			28.650			-3.581
74004.000			28.648			-3.581
74105.000			28.649			-3.581
74204.000			28.648			-3.581
74304.000			28.645			-3.581
74405.000			28.645			-3.581
74504.000			28.644			-3.581
74603.000			28.643			-3.580
74705.000			28.641			-3.580
74804.000			28.640			-3.580
74904.000			28.638			-3.580
75005.000			28.638			-3.580
75104.000			28.636			-3.580
75204.000			28.636			-3.579
75305.000			28.635			-3.579
75404.000			28.635			-3.579
75503.000			28.634			-3.579
75605.000			28.632			-3.579
75704.000			28.630			-3.579
75805.000			28.628			-3.578
75904.000			28.627			-3.578
76004.000			28.626			-3.578
76105.000			28.624			-3.578
76203.000			28.623			-3.578
76304.000			28.623			-3.578
76405.000			28.622			-3.578
76504.000			28.620			-3.578
76604.000			28.620			-3.578
76705.000			28.618			-3.577
76804.000			28.617			-3.577
76903.000			28.615			-3.577
77005.000			28.615			-3.577
77104.000			28.614			-3.577
77204.000			28.613			-3.577
77305.000			28.611			-3.576
77404.000			28.609			-3.576
77504.000			28.609			-3.576
77604.000			28.608			-3.576
77704.000			28.607			-3.576
77804.000			28.606			-3.576
77905.000			28.605			-3.576
78004.000			28.602			-3.575
78104.000			28.602			-3.575
78205.000			28.602			-3.575
78303.000			28.600			-3.575
78404.000			28.599			-3.575
78505.000			28.598			-3.575
78604.000			28.598			-3.575
78704.000			28.595			-3.574
78804.000			28.594			-3.574
78904.000			28.592			-3.574
79004.000			28.592			-3.574
79104.000			28.591			-3.574
79203.000			28.590			-3.574
79305.000			28.590			-3.574
79404.000			28.588			-3.573
79504.000			28.586			-3.573
79605.000			28.585			-3.573
79704.000			28.583			-3.573
79804.000			28.582			-3.573
79904.000			28.582			-3.573
80004.000			28.581			-3.573
80104.000			28.579			-3.572
80205.000			28.579			-3.572
80304.000			28.579			-3.572
80404.000			28.577			-3.572
80505.000			28.576			-3.572
80603.000			28.575			-3.572
80704.000			28.573			-3.572
80805.000			28.572			-3.572
80904.000			28.570			-3.571
81004.000			28.570			-3.571
81105.000			28.569			-3.571
81204.000			28.567			-3.571
81303.000			28.566			-3.571
81405.000			28.565			-3.571
81504.000			28.564			-3.571
81604.000			28.561			-3.570
81705.000			28.561			-3.570
81804.000			28.560			-3.570
81904.000			28.560			-3.570
82003.000			28.559			-3.570
82104.000			28.557			-3.570
82205.000			28.556			-3.570
82304.000			28.555			-3.569
82404.000			28.554			-3.569
82505.000			28.554			-3.569
82604.000			28.553			-3.569
82703.000			28.552			-3.569
82805.000			28.550			-3.569
82904.000			28.549			-3.569
83004.000			28.546			-3.568
83105.000			28.546			-3.568
83204.000			28.546			-3.568
83304.000			28.545			-3.568
83404.000			28.544			-3.568
83504.000			28.543			-3.568
83603.000			28.542			-3.568
83705.000			28.540			-3.568
83804.000			28.539			-3.567
83904.000			28.537			-3.567
84005.000			28.537			-3.567
84104.000			28.537			-3.567
84204.000			28.536			-3.567
84304.000			28.534			-3.567
84404.000			28.534			-3.567
84504.000			28.531			-3.566
84605.000			28.530			-3.566
84704.000			28.531			-3.566
84804.000			28.530			-3.566
84905.000			28.528			-3.566
85003.000			28.527			-3.566
85104.000			28.526			-3.566
85205.000			28.524			-3.565
85304.000			28.524			-3.565
85405.000			28.523			-3.565
85504.000			28.522			-3.565
85604.000			28.521			-3.565
85704.000			28.520			-3.565
85804.000			28.519			-3.565
85904.000			28.517			-3.565
86005.000			28.516			-3.564
86104.000			28.516			-3.564
86204.000			28.515			-3.564
86305.000			28.513			-3.564
86403.000			28.512			-3.564
86504.000			28.511			-3.564
86605.000			28.511			-3.564
86704.000			28.508			-3.564
86804.000			28.508			-3.563
86905.000			28.508			-3.563
87004.000			28.507			-3.563
87103.000			28.506			-3.563
87205.000			28.504			-3.563
87304.000			28.503			-3.563
87404.000			28.502			-3.563
87505.000			28.501			-3.563
87604.000			28.500			-3.562
87704.000			28.500			-3.562
87804.000			28.499			-3.562
87904.000			28.498			-3.562
88003.000			28.496			-3.562
88105.000			28.495			-3.562
88204.000			28.495			-3.562
88304.000			28.495			-3.562
88405.000			28.493			-3.562
88504.000			28.491			-3.561
88605.000			28.490			-3.561
88703.000			28.489			-3.561
88804.000			28.487			-3.561
88905.000			28.487			-3.561
89004.000			28.487			-3.561
89104.000			28.485			-3.561
89205.000			28.485			-3.561
89304.000			28.483			-3.560
89403.000			28.481			-3.560
89505.000			28.481			-3.560
89604.000			28.480			-3.560
89704.000			28.479			-3.560
89805.000			28.478			-3.560
89904.000			28.477			-3.560
90004.000			28.476			-3.559
90105.000			28.476			-3.559
90204.000			28.475			-3.559
90303.000			28.472			-3.559
90405.000			28.471			-3.559
90504.000			28.470			-3.559
90604.000			28.470			-3.559
90705.000			28.470			-3.559
90804.000			28.469			-3.559
90904.000			28.468			-3.558
91004.000			28.466			-3.558
91104.000			28.465			-3.558
91204.000			28.464			-3.558
91305.000			28.463			-3.558
91404.000			28.462			-3.558
91504.000			28.462			-3.558
91605.000			28.461			-3.558
91703.000			28.459			-3.557
91805.000			28.457			-3.557
91904.000			28.457			-3.557
92004.000			28.456			-3.557
92105.000			28.455			-3.557
92204.000			28.454			-3.557
92304.000			28.455			-3.557
92404.000			28.454			-3.557
92504.000			28.451			-3.556
92604.000			28.450			-3.556
92705.000			28.450			-3.556
92804.000			28.449			-3.556
92904.000			28.449			-3.556
93005.000			28.448			-3.556
93103.000			28.446			-3.556
93204.000			28.445			-3.556
93305.000			28.445			-3.556
93404.000			28.444			-3.555
93504.000			28.442			-3.555
93605.000			28.441			-3.555
93704.000			28.440			-3.555
93803.000			28.439			-3.555
93905.000			28.439			-3.555
94004.000			28.440			-3.555
94104.000			28.438			-3.555
94205.000			28.437			-3.555
94304.000			28.435			-3.554
94404.000			28.434			-3.554
94504.000			28.434			-3.554
94604.000			28.431			-3.554
94704.000			28.430			-3.554
94804.000			28.429			-3.554
94904.000			28.428			-3.554
95005.000			28.427			-3.553
95104.000			28.427			-3.553
95204.000			28.427			-3.553
95305.000			28.426			-3.553
95403.000			28.425			-3.553
95504.000			28.425			-3.553
95605.000			28.424			-3.553
95704.000			28.423			-3.553
95804.000			28.422			-3.553
95905.000			28.420			-3.553
96004.000			28.419			-3.552
96103.000			28.418			-3.552
96205.000			28.417			-3.552
96304.000			28.415			-3.552
96404.000			28.415			-3.552
96505.000			28.415			-3.552
96604.000			28.414			-3.552
96704.000			28.413			-3.552
96804.000			28.411			-3.551
96904.000			28.409			-3.551
97004.000			28.409			-3.551
97105.000			28.408			-3.551
97204.000			28.408			-3.551
97304.000			28.408			-3.551
97405.000			28.407			-3.551
97503.000			28.406			-3.551
97604.000			28.405			-3.551
97705.000			28.404			-3.551
97804.000			28.403			-3.550
97904.000			28.401			-3.550
98004.000			28.402			-3.550
98104.000			28.401			-3.550
98204.000			28.400			-3.550
98304.000			28.397			-3.550
98404.000			28.396			-3.550
98505.000			28.397			-3.550
98604.000			28.396			-3.549
98704.000			28.394			-3.549
98805.000			28.394			-3.549
98904.000			28.394			-3.549
99004.000			28.390			-3.549
99104.000			28.391			-3.549
99204.000			28.390			-3.549
99304.000			28.389			-3.549
99405.000			28.388			-3.549
99504.000			28.388			-3.548
99604.000			28.387			-3.548
99705.000			28.385			-3.548
99803.000			28.384			-3.548
99904.000			28.383			-3.548
100005.000			28.383			-3.548
100104.000			28.384			-3.548
100204.000			28.382			-3.548
100305.000			28.380			-3.547
100404.000			28.379			-3.547
100503.000			28.378			-3.547
100605.000			28.378			-3.547
100703.000			28.377			-3.547
100804.000			28.377			-3.547
100905.000			28.376			-3.547
101004.000			28.375			-3.547
101104.000			28.374			-3.547
101204.000			28.371			-3.546
101304.000			28.371			-3.546
101404.000			28.371			-3.546
101504.000			28.371			-3.546
101604.000			28.369			-3.546
101705.000			28.369			-3.546
101804.000			28.368			-3.546
101904.000			28.366			-3.546
102005.000			28.364			-3.546
102103.000			28.363			-3.545
102204.000			28.363			-3.545
102305.000			28.362			-3.545
102404.000			28.362			-3.545
102504.000			28.361			-3.545
102605.000			28.361			-3.545
102704.000			28.360			-3.545
102803.000			28.358			-3.545
102905.000			28.358			-3.545
103004.000			28.357			-3.545
103104.000			28.356			-3.545
103205.000			28.356			-3.545
103304.000			28.355			-3.544
103404.000			28.353			-3.544
103504.000			28.353			-3.544
103604.000			28.352			-3.544
103704.000			28.350			-3.544
103805.000			28.349			-3.544
103904.000			28.349			-3.544
104004.000			28.349			-3.544
104105.000			28.348			-3.543
104204.000			28.346			-3.543
104304.000			28.345			-3.543
104403.000			28.345			-3.543
104504.000			28.345			-3.543
104605.000			28.344			-3.543
104704.000			28.342			-3.543
104804.000			28.341			-3.543
104905.000			28.339			-3.542
105004.000			28.339			-3.542
105103.000			28.338			-3.542
105205.000			28.337			-3.542
105304.000			28.336			-3.542
105404.000			28.336			-3.542
105505.000			28.337			-3.542
105604.000			28.336			-3.542
105704.000			28.334			-3.542
105804.000			28.333			-3.542
105904.000			28.332			-3.542
106004.000			28.332			-3.541
106105.000			28.330			-3.541
106204.000			28.328			-3.541
106304.000			28.328			-3.541
106405.000			28.328			-3.541
106503.000			28.327			-3.541
106604.000			28.325			-3.541
106705.000			28.324			-3.540
106804.000			28.323			-3.540
106904.000			28.323			-3.540
107005.000			28.322			-3.540
107104.000			28.321			-3.540
107203.000			28.321			-3.540
107305.000			28.321			-3.540
107404.000			28.320			-3.540
107504.000			28.318			-3.540
107605.000			28.317			-3.540
107704.000			28.316			-3.540
107805.000			28.316			-3.539
107904.000			28.314			-3.539
108004.000			28.315			-3.539
108104.000			28.314			-3.539
108204.000			28.313			-3.539
108304.000			28.313			-3.539
108405.000			28.311			-3.539
108504.000			28.310			-3.539
108604.000			28.309			-3.539
108705.000			28.308			-3.539
108803.000			28.307			-3.538
108904.000			28.306			-3.538
109005.000			28.306			-3.538
109104.000			28.305			-3.538
109204.000			28.304			-3.538
109305.000			28.303			-3.538
109404.000			28.302			-3.538
109503.000			28.302			-3.538
109605.000			28.300			-3.538
109704.000			28.300			-3.538
109804.000			28.299			-3.537
109905.000			28.299			-3.537
110004.000			28.297			-3.537
110104.000			28.296			-3.537
110204.000			28.295			-3.537
110304.000			28.294			-3.537
110404.000			28.295			-3.537
110505.000			28.294			-3.537
110604.000			28.293			-3.537
110704.000			28.293			-3.537
110805.000			28.292			-3.536
110903.000			28.290			-3.536
111005.000			28.290			-3.536
111104.000			28.289			-3.536
111204.000			28.288			-3.536
111305.000			28.288			-3.536
111404.000			28.287			-3.536
111504.000			28.286			-3.536
111604.000			28.286			-3.536
111704.000			28.284			-3.535
111803.000			28.282			-3.535
111905.000			28.282			-3.535
112004.000			28.282			-3.535
112104.000			28.282			-3.535
112205.000			28.281			-3.535
112304.000			28.279			-3.535
112404.000			28.280			-3.535
112504.000			28.279			-3.535
112604.000			28.278			-3.535
112704.000			28.276			-3.535
112805.000			28.275			-3.534
112904.000			28.274			-3.534
113004.000			28.273			-3.534
113105.000			28.272			-3.534
113203.000			28.272			-3.534
113304.000			28.272			-3.534
113405.000			28.270			-3.534
113504.000			28.271			-3.534
113604.000			28.269			-3.534
113705.000			28.269			-3.534
113804.000			28.268			-3.533
113903.000			28.267			-3.533
114005.000			28.267			-3.533
114104.000			28.266			-3.533
114205.000			28.265			-3.533
114304.000			28.264			-3.533
114404.000			28.263			-3.533
114505.000			28.262			-3.533
114603.000			28.262			-3.533
114704.000			28.262			-3.533
114804.000			28.260			-3.533
114904.000			28.259			-3.532
115004.000			28.258			-3.532
115105.000			28.257			-3.532
115204.000			28.257			-3.532
115304.000			28.256			-3.532
115405.000			28.256			-3.532
115503.000			28.255			-3.532
115604.000			28.254			-3.532
115705.000			28.253			-3.532
115804.000			28.252			-3.531
115904.000			28.251			-3.531
116005.000			28.251			-3.531
116104.000			28.250			-3.531
116203.000			28.249			-3.531
116305.000			28.249			-3.531
116404.000			28.248			-3.531
116504.000			28.247			-3.531
116605.000			28.247			-3.531
116704.000			28.246			-3.531
116804.000			28.245			-3.531
116904.000			28.244			-3.531
117004.000			28.243			-3.530
117104.000			28.243			-3.530
117204.000			28.243			-3.530
117304.000			28.242			-3.530
117405.000			28.241			-3.530
117504.000			28.240			-3.530
117603.000			28.240			-3.530
117705.000			28.238			-3.530
117803.000			28.237			-3.530
117904.000			28.236			-3.530
118005.000			28.236			-3.530
118104.000			28.236			-3.530
118204.000			28.235			-3.529
118305.000			28.234			-3.529
118404.000			28.233			-3.529
118503.000			28.232			-3.529
118605.000			28.232			-3.529
118704.000			28.231			-3.529
118804.000			28.229			-3.529
118905.000			28.227			-3.528
119004.000			28.228			-3.529
119104.000			28.228			-3.529
119204.000			28.227			-3.528
119304.000			28.226			-3.528
119404.000			28.226			-3.528
119505.000			28.225			-3.528
119604.000			28.224			-3.528
119704.000			28.223			-3.528
119805.000			28.222			-3.528
119903.000			28.222			-3.528
120004.000			28.220			-3.527
120105.000			28.220			-3.528
120204.000			28.218			-3.527
120304.000			28.218			-3.527
120404.000			28.218			-3.527
120504.000			28.216			-3.527
120604.000			28.216			-3.527
120704.000			28.215			-3.527
120803.000			28.215			-3.527
120905.000			28.214			-3.527
121004.000			28.214			-3.527
121104.000			28.214			-3.527
121205.000			28.213			-3.527
121303.000			28.211			-3.526
121404.000			28.211			-3.526
121505.000			28.210			-3.526
121604.000			28.209			-3.526
121704.000			28.208			-3.526
121805.000			28.207			-3.526
121904.000			28.207			-3.526
122003.000			28.206			-3.526
122105.000			28.205			-3.526
122204.000			28.204			-3.526
122304.000			28.204			-3.525
122405.000			28.204			-3.525
122504.000			28.203			-3.525
122604.000			28.203			-3.525
122704.000			28.202			-3.525
122804.000			28.201			-3.525
122903.000			28.200			-3.525
123005.000			28.199			-3.525
123104.000			28.198			-3.525
123204.000			28.198			-3.525
123305.000			28.197			-3.525
123404.000			28.197			-3.525
123504.000			28.196			-3.525
123603.000			28.195			-3.524
123704.000			28.194			-3.524
123805.000			28.193			-3.524
123904.000			28.192			-3.524
124004.000			28.192			-3.524
124105.000			28.192			-3.524
124204.000			28.191			-3.524
124303.000			28.190			-3.524
124405.000			28.189			-3.524
124504.000			28.189			-3.524
124604.000			28.187			-3.523
124705.000			28.187			-3.523
124804.000			28.186			-3.523
124904.000			28.186			-3.523
125004.000			28.185			-3.523
125104.000			28.184			-3.523
125204.000			28.185			-3.523
125305.000			28.183			-3.523
125404.000			28.180			-3.523
125504.000			28.180			-3.522
125605.000			28.180			-3.522
125704.000			28.179			-3.522
125804.000			28.179			-3.522
125904.000			28.178			-3.522
126004.000			28.178			-3.522
126104.000			28.178			-3.522
126205.000			28.176			-3.522
126304.000			28.174			-3.522
126404.000			28.174			-3.522
126505.000			28.173			-3.522
126603.000			28.173			-3.522
126704.000			28.172			-3.522
126805.000			28.171			-3.521
126904.000			28.171			-3.521
127005.000			28.171			-3.521
127104.000			28.170			-3.521
127204.000			28.169			-3.521
127304.000			28.168			-3.521
127404.000			28.168			-3.521
127503.000			28.167			-3.521
127605.000			28.166			-3.521
127704.000			28.165			-3.521
127804.000			28.164			-3.521
127905.000			28.164			-3.520
128004.000			28.162			-3.520
128104.000			28.163			-3.520
128204.000			28.163			-3.520
128304.000			28.161			-3.520
128404.000			28.161			-3.520
128505.000			28.161			-3.520
128604.000			28.160			-3.520
128704.000			28.158			-3.520
128805.000			28.158			-3.520
128904.000			28.157			-3.520
129004.000			28.157			-3.520
129104.000			28.156			-3.520
129204.000			28.155			-3.519
129304.000			28.155			-3.519
129405.000			28.154			-3.519
129504.000			28.153			-3.519
129604.000			28.152			-3.519
129705.000			28.152			-3.519
129803.000			28.152			-3.519
129904.000			28.151			-3.519
130005.000			28.150			-3.519
130104.000			28.150			-3.519
130205.000			28.149			-3.519
130304.000			28.148			-3.519
130404.000			28.147			-3.518
130504.000			28.146			-3.518
130604.000			28.146			-3.518
130704.000			28.146			-3.518
130805.000			28.145			-3.518
130904.000			28.142			-3.518
131004.000			28.141			-3.518
131105.000			28.142			-3.518
131203.000			28.142			-3.518
131304.000			28.141			-3.518
131404.000			28.141			-3.518
131504.000			28.140			-3.518
131604.000			28.139			-3.517
131705.000			28.138			-3.517
131804.000			28.138			-3.517
131904.000			28.137			-3.517
132005.000			28.135			-3.517
132103.000			28.136			-3.517
132204.000			28.136			-3.517
132305.000			28.134			-3.517
132404.000			28.133			-3.517
132504.000			28.132			-3.516
132605.000			28.132			-3.517
132704.000			28.131			-3.516
132804.000			28.130			-3.516
132905.000			28.130			-3.516
133003.000			28.129			-3.516
133104.000			28.128			-3.516
133205.000			28.128			-3.516
133304.000			28.128			-3.516
133405.000			28.126			-3.516
133504.000			28.126			-3.516
133604.000			28.126			-3.516
133704.000			28.126			-3.516
133804.000			28.125			-3.516
133903.000			28.125			-3.516
134005.000			28.123			-3.515
134104.000			28.123			-3.515
134204.000			28.122			-3.515
134305.000			28.121			-3.515
134404.000			28.120			-3.515
134504.000			28.119			-3.515
134604.000			28.119			-3.515
134704.000			28.119			-3.515
134803.000			28.118			-3.515
134905.000			28.118			-3.515
135004.000			28.116			-3.515
135104.000			28.116			-3.514
135205.000			28.115			-3.514
135304.000			28.115			-3.514
135404.000			28.113			-3.514
135504.000			28.112			-3.514
135604.000			28.112			-3.514
135704.000			28.112			-3.514
135805.000			28.112			-3.514
135904.000			28.111			-3.514
136004.000			28.110			-3.514
136105.000			28.108			-3.513
136204.000			28.107			-3.513
136304.000			28.107			-3.513
136403.000			28.107			-3.513
136504.000			28.106			-3.513
136605.000			28.107			-3.513
136704.000			28.106			-3.513
136804.000			28.105			-3.513
136905.000			28.104			-3.513
137004.000			28.103			-3.513
137104.000			28.103			-3.513
137205.000			28.103			-3.513
137303.000			28.102			-3.513
137404.000			28.101			-3.513
137505.000			28.099			-3.512
137604.000			28.099			-3.512
137704.000			28.099			-3.512
137805.000			28.098			-3.512
137904.000			28.098			-3.512
138004.000			28.097			-3.512
138105.000			28.096			-3.512
138203.000			28.095			-3.512
138304.000			28.095			-3.512
138405.000			28.095			-3.512
138504.000			28.094			-3.512
138604.000			28.094			-3.512
138705.000			28.094			-3.512
138804.000			28.092			-3.511
138904.000			28.090			-3.511
139005.000			28.091			-3.511
139103.000			28.090			-3.511
139204.000			28.089			-3.511
139305.000			28.089			-3.511
139404.000			28.089			-3.511
139504.000			28.088			-3.511
139604.000			28.086			-3.511
139704.000			28.085			-3.511
139805.000			28.085			-3.511
139904.000			28.084			-3.511
140003.000			28.083			-3.510
140105.000			28.082			-3.510
140204.000			28.081			-3.510
140304.000			28.082			-3.510
140405.000			28.082			-3.510
140504.000			28.081			-3.510
140604.000			28.081			-3.510
140705.000			28.079			-3.510
140804.000			28.079			-3.510
140903.000			28.078			-3.510
141005.000			28.077			-3.510
141104.000			28.077			-3.510
141204.000			28.077			-3.510
141305.000			28.076			-3.509
141404.000			28.075			-3.509
141504.000			28.075			-3.509
141605.000			28.075			-3.509
141704.000			28.075			-3.509
141803.000			28.073			-3.509
141905.000			28.072			-3.509
142004.000			28.071			-3.509
142104.000			28.070			-3.509
142205.000			28.070			-3.509
142304.000			28.070			-3.509
142404.000			28.069			-3.509
142505.000			28.069			-3.509
142604.000			28.068			-3.508
142703.000			28.068			-3.508
142805.000			28.066			-3.508
142904.000			28.065			-3.508
143005.000			28.064			-3.508
143104.000			28.064			-3.508
143204.000			28.063			-3.508
143305.000			28.064			-3.508
143404.000			28.064			-3.508
143504.000			28.062			-3.508
143604.000			28.062			-3.508
143704.000			28.062			-3.508
143804.000			28.062			-3.508
143905.000			28.060			-3.507
144004.000			28.059			-3.507
144104.000			28.058			-3.507
144205.000			28.058			-3.507
144304.000			28.057			-3.507
144404.000			28.057			-3.507
144504.000			28.058			-3.507
144604.000			28.057			-3.507
144704.000			28.057			-3.507
144805.000			28.056			-3.507
144904.000			28.054			-3.507
145004.000			28.053			-3.507
145105.000			28.054			-3.507
145204.000			28.053			-3.507
145304.000			28.052			-3.506
145404.000			28.052			-3.506
145504.000			28.050			-3.506
145604.000			28.049			-3.506
145705.000			28.049			-3.506
145804.000			28.049			-3.506
145904.000			28.049			-3.506
146005.000			28.048			-3.506
146104.000			28.047			-3.506
146205.000			28.047			-3.506
146303.000			28.046			-3.506
146404.000			28.045			-3.506
146505.000			28.045			-3.506
146604.000			28.045			-3.506
146704.000			28.043			-3.505
146805.000			28.043			-3.505
146904.000			28.043			-3.505
147003.000			28.041			-3.505
147105.000			28.041			-3.505
147203.000			28.042			-3.505
147304.000			28.040			-3.505
147405.000			28.040			-3.505
147504.000			28.039			-3.505
147604.000			28.038			-3.505
147705.000			28.038			-3.505
147804.000			28.036			-3.505
147904.000			28.035			-3.504
148005.000			28.034			-3.504
148103.000			28.034			-3.504
148204.000			28.034			-3.504
148305.000			28.033			-3.504
148404.000			28.032			-3.504
148504.000			28.033			-3.504
148605.000			28.032			-3.504
148704.000			28.031			-3.504
148804.000			28.030			-3.504
148905.000			28.029			-3.504
149003.000			28.029			-3.504
149104.000			28.028			-3.504
149205.000			28.028			-3.503
149304.000			28.027			-3.503
149405.000			28.027			-3.503
149504.000			28.026			-3.503
149604.000			28.025			-3.503
149705.000			28.025			-3.503
149804.000			28.024			-3.503
149903.000			28.023			-3.503
150005.000			28.023			-3.503
150104.000			28.023			-3.503
150204.000			28.023			-3.503
150305.000			28.023			-3.503
150404.000			28.021			-3.503
150504.000			28.020			-3.502
150604.000			28.020			-3.502
150704.000			28.019			-3.502
150803.000			28.018			-3.502
150905.000			28.018			-3.502
151004.000			28.018			-3.502
151104.000			28.018			-3.502
151205.000			28.016			-3.502
151304.000			28.016			-3.502
151404.000			28.015			-3.502
151504.000			28.014			-3.502
151604.000			28.014			-3.502
151703.000			28.013			-3.502
151805.000			28.013			-3.502
151904.000			28.012			-3.501
152004.000			28.012			-3.501
152105.000			28.011			-3.501
152204.000			28.011			-3.501
152304.000			28.011			-3.501
152403.000			28.009			-3.501
152504.000			28.008			-3.501
152605.000			28.008			-3.501
152704.000			28.006			-3.501
152804.000			28.006			-3.501
152905.000			28.005			-3.501
153004.000			28.006			-3.501
153104.000			28.006			-3.501
153205.000			28.005			-3.501
153303.000			28.004			-3.500
153404.000			28.004			-3.501
153505.000			28.002			-3.500
153604.000			28.002			-3.500
153704.000			28.002			-3.500
153805.000			28.001			-3.500
153904.000			27.999			-3.500
154003.000			27.999			-3.500
154105.000			28.000			-3.500
154203.000			27.998			-3.500
154304.000			27.998			-3.500
154405.000			27.998			-3.500
154504.000			27.997			-3.500
154604.000			27.996			-3.499
154705.000			27.995			-3.499
154804.000			27.995			-3.499
154904.000			27.993			-3.499
155005.000			27.993			-3.499
155103.000			27.994			-3.499
155204.000			27.993			-3.499
155305.000			27.992			-3.499
155404.000			27.992			-3.499
155504.000			27.992			-3.499
155604.000			27.991			-3.499
155704.000			27.990			-3.499
155805.000			27.989			-3.499
155904.000			27.988			-3.499
156004.000			27.987			-3.498
156105.000			27.988			-3.498
156203.000			27.988			-3.498
156304.000			27.987			-3.498
156405.000			27.987			-3.498
156504.000			27.985			-3.498
156604.000			27.985			-3.498
156705.000			27.985			-3.498
156804.000			27.985			-3.498
156904.000			27.985			-3.498
157005.000			27.983			-3.498
157103.000			27.982			-3.498
157204.000			27.981			-3.498
157304.000			27.981			-3.498
157404.000			27.982			-3.498
157504.000			27.981			-3.498
157605.000			27.979			-3.497
157704.000			27.980			-3.497
157804.000			27.979			-3.497
157905.000			27.979			-3.497
158004.000			27.978			-3.497
158104.000			27.979			-3.497
158204.000			27.977			-3.497
158304.000			27.976			-3.497
158403.000			27.975			-3.497
158505.000			27.975			-3.497
158604.000			27.974			-3.497
158704.000			27.973			-3.497
158805.000			27.973			-3.497
158904.000			27.973			-3.497
159005.000			27.972			-3.496
159104.000			27.971			-3.496
159204.000			27.971			-3.496
159304.000			27.969			-3.496
159404.000			27.969			-3.496
159503.000			27.969			-3.496
159605.000			27.968			-3.496
159704.000			27.968			-3.496
159804.000			27.967			-3.496
159905.000			27.966			-3.496
160004.000			27.965			-3.496
160104.000			27.965			-3.496
160204.000			27.965			-3.496
160304.000			27.964			-3.496
160403.000			27.964			-3.495
160505.000			27.964			-3.495
160604.000			27.962			-3.495
160704.000			27.961			-3.495
160805.000			27.962			-3.495
160904.000			27.961			-3.495
161004.000			27.960			-3.495
161104.000			27.960			-3.495
161204.000			27.962			-3.495
161303.000			27.960			-3.495
161405.000			27.959			-3.495
161504.000			27.958			-3.495
161604.000			27.958			-3.495
161705.000			27.957			-3.495
161804.000			27.956			-3.495
161904.000			27.957			-3.495
162004.000			27.956			-3.494
162104.000			27.955			-3.494
162204.000			27.955			-3.494
162304.000			27.954			-3.494
162404.000			27.953			-3.494
162505.000			27.953			-3.494
162604.000			27.952			-3.494
162704.000			27.952			-3.494
162805.000			27.952			-3.494
162904.000			27.951			-3.494
163004.000			27.950			-3.494
163104.000			27.949			-3.494
163204.000			27.948			-3.494
163304.000			27.947			-3.493
163405.000			27.946			-3.493
163504.000			27.946			-3.493
163604.000			27.945			-3.493
163705.000			27.945			-3.493
163804.000			27.945			-3.493
163904.000			27.945			-3.493
164004.000			27.943			-3.493
164104.000			27.944			-3.493
164203.000			27.943			-3.493
164305.000			27.942			-3.493
164404.000			27.941			-3.493
164504.000			27.941			-3.493
164605.000			27.942			-3.493
164704.000			27.942			-3.493
164804.000			27.940			-3.493
164904.000			27.939			-3.492
165004.000			27.938			-3.492
165103.000			27.937			-3.492
165205.000			27.938			-3.492
165304.000			27.938			-3.492
165405.000			27.936			-3.492
165504.000			27.936			-3.492
165604.000			27.936			-3.492
165705.000			27.935			-3.492
165804.000			27.935			-3.492
165904.000			27.934			-3.492
166004.000			27.933			-3.492
166104.000			27.933			-3.492
166204.000			27.932			-3.492
166305.000			27.932			-3.492
166404.000			27.931			-3.491
166504.000			27.931			-3.491
166605.000			27.931			-3.491
166704.000			27.930			-3.491
166804.000			27.930			-3.491
166904.000			27.928			-3.491
167004.000			27.928			-3.491
167103.000			27.927			-3.491
167205.000			27.926			-3.491
167304.000			27.925			-3.491
167404.000			27.926			-3.491
167505.000			27.926			-3.491
167604.000			27.926			-3.491
167704.000			27.925			-3.491
167805.000			27.924			-3.491
167904.000			27.924			-3.490
168003.000			27.923			-3.490
168105.000			27.923			-3.490
168204.000			27.922			-3.490
168304.000			27.922			-3.490
168405.000			27.921			-3.490
168504.000			27.920			-3.490
168605.000			27.919			-3.490
168704.000			27.919			-3.490
168804.000			27.918			-3.490
168904.000			27.917			-3.490
169004.000			27.917			-3.490
169103.000			27.916			-3.490
169205.000			27.916			-3.490
169304.000			27.915			-3.489
169404.000			27.915			-3.489
169505.000			27.914			-3.489
169604.000			27.914			-3.489
169704.000			27.914			-3.489
169804.000			27.913			-3.489
169904.000			27.913			-3.489
170003.000			27.911			-3.489
170105.000			27.911			-3.489
170204.000			27.911			-3.489
170304.000			27.911			-3.489
170405.000			27.910			-3.489
170504.000			27.909			-3.489
170604.000			27.910			-3.489
170704.000			27.907			-3.488
170804.000			27.906			-3.488
170903.000			27.907			-3.488
171005.000			27.907			-3.488
171104.000			27.907			-3.488
171204.000			27.907			-3.488
171305.000			27.906			-3.488
171404.000			27.905			-3.488
171504.000			27.905			-3.488
171604.000			27.904			-3.488
171704.000			27.902			-3.488
171804.000			27.902			-3.488
171904.000			27.902			-3.488
172004.000			27.902			-3.488
172105.000			27.902			-3.488
172204.000			27.902			-3.488
172304.000			27.901			-3.488
172405.000			27.900			-3.487
172504.000			27.900			-3.487
172604.000			27.900			-3.488
172704.000			27.899			-3.487
172804.000			27.898			-3.487
172904.000			27.897			-3.487
173005.000			27.896			-3.487
173104.000			27.896			-3.487
173204.000			27.895			-3.487
173305.000			27.895			-3.487
173404.000			27.895			-3.487
173504.000			27.894			-3.487
173604.000			27.893			-3.487
173704.000			27.893			-3.487
173803.000			27.892			-3.486
173905.000			27.891			-3.486
174004.000			27.891			-3.486
174104.000			27.891			-3.486
174205.000			27.892			-3.486
174304.000			27.891			-3.486
174404.000			27.890			-3.486
174505.000			27.890			-3.486
174604.000			27.890			-3.486
174703.000			27.890			-3.486
174805.000			27.889			-3.486
174904.000			27.888			-3.486
175005.000			27.887			-3.486
175104.000			27.887			-3.486
175204.000			27.886			-3.486
175305.000			27.885			-3.486
175404.000			27.885			-3.486
175504.000			27.884			-3.486
175605.000			27.884			-3.485
175704.000			27.883			-3.485
175803.000			27.883			-3.485
175905.000			27.883			-3.485
176004.000			27.883			-3.485
176104.000			27.882			-3.485
176205.000			27.881			-3.485
176304.000			27.881			-3.485
176404.000			27.880			-3.485
176505.000			27.880			-3.485
176604.000			27.879			-3.485
176703.000			27.878			-3.485
176805.000			27.877			-3.485
176903.000			27.877			-3.485
177004.000			27.877			-3.485
177105.000			27.876			-3.485
177204.000			27.877			-3.485
177304.000			27.875			-3.484
177405.000			27.875			-3.484
177504.000			27.875			-3.484
177604.000			27.875			-3.484
177705.000			27.874			-3.484
177803.000			27.873			-3.484
177904.000			27.873			-3.484
178003.000			27.871			-3.484
178104.000			27.871			-3.484
178205.000			27.871			-3.484
178304.000			27.870			-3.484
178404.000			27.870			-3.484
178505.000			27.870			-3.484
178604.000			27.870			-3.484
178703.000			27.869			-3.484
178805.000			27.868			-3.483
178903.000			27.868			-3.484
179004.000			27.868			-3.483
179105.000			27.867			-3.483
179204.000			27.866			-3.483
179304.000			27.865			-3.483
179405.000			27.865			-3.483
179504.000			27.864			-3.483
179604.000			27.864			-3.483
179705.000			27.864			-3.483
179803.000			27.863			-3.483
179904.000			27.863			-3.483
180004.000			27.862			-3.483
180104.000			27.861			-3.483
180204.000			27.861			-3.483
180305.000			27.861			-3.483
180404.000			27.861			-3.483
180504.000			27.859			-3.482
180605.000			27.859			-3.482
180704.000			27.859			-3.482
180804.000			27.859			-3.482
180904.000			27.857			-3.482
181004.000			27.858			-3.482
181104.000			27.858			-3.482
181204.000			27.857			-3.482
181304.000			27.856			-3.482
181405.000			27.855			-3.482
181504.000			27.855			-3.482
181604.000			27.854			-3.482
181705.000			27.855			-3.482
181803.000			27.854			-3.482
181904.000			27.852			-3.482
182004.000			27.852			-3.482
182104.000			27.852			-3.482
182204.000			27.852			-3.481
182305.000			27.851			-3.481
182404.000			27.851			-3.481
182504.000			27.850			-3.481
182605.000			27.849			-3.481
182703.000			27.848			-3.481
182804.000			27.847			-3.481
182904.000			27.848			-3.481
183004.000			27.848			-3.481
183104.000			27.847			-3.481
183205.000			27.846			-3.481
183304.000			27.845			-3.481
183404.000			27.845			-3.481
183505.000			27.845			-3.481
183604.000			27.845			-3.481
183704.000			27.845			-3.481
183804.000			27.843			-3.480
183904.000			27.842			-3.480
184004.000			27.843			-3.480
184105.000			27.843			-3.480
184204.000			27.843			-3.480
184304.000			27.842			-3.480
184405.000			27.841			-3.480
184504.000			27.840			-3.480
184605.000			27.839			-3.480
184703.000			27.840			-3.480
184804.000			27.839			-3.480
184904.000			27.838			-3.480
185004.000			27.839			-3.480
185104.000			27.838			-3.480
185205.000			27.837			-3.480
185304.000			27.837			-3.480
185404.000			27.836			-3.480
185505.000			27.836			-3.479
185604.000			27.835			-3.479
185704.000			27.835			-3.479
185804.000			27.835			-3.479
185904.000			27.833			-3.479
186004.000			27.832			-3.479
186105.000			27.833			-3.479
186204.000			27.833			-3.479
186304.000			27.832			-3.479
186405.000			27.831			-3.479
186504.000			27.830			-3.479
186604.000			27.830			-3.479
186704.000			27.830			-3.479
186804.000			27.828			-3.479
186904.000			27.829			-3.479
187005.000			27.828			-3.479
187104.000			27.828			-3.478
187204.000			27.828			-3.478
187305.000			27.827			-3.478
187404.000			27.826			-3.478
187504.000			27.826			-3.478
187603.000			27.825			-3.478
187704.000			27.825			-3.478
187804.000			27.824			-3.478
187904.000			27.823			-3.478
188004.000			27.823			-3.478
188105.000			27.823			-3.478
188204.000			27.822			-3.478
188304.000			27.822			-3.478
188405.000			27.822			-3.478
188504.000			27.822			-3.478
188604.000			27.821			-3.478
188704.000			27.820			-3.477
188804.000			27.819			-3.477
188904.000			27.819			-3.477
189005.000			27.819			-3.477
189104.000			27.820			-3.477
189204.000			27.819			-3.477
189305.000			27.817			-3.477
189404.000			27.817			-3.477
189504.000			27.816			-3.477
189604.000			27.815			-3.477
189704.000			27.816			-3.477
189803.000			27.815			-3.477
189905.000			27.815			-3.477
190004.000			27.814			-3.477
190104.000			27.814			-3.477
190205.000			27.814			-3.477
190304.000			27.813			-3.477
190404.000			27.813			-3.477
190504.000			27.812			-3.476
190604.000			27.812			-3.476
190703.000			27.812			-3.476
190805.000			27.811			-3.476
190904.000			27.811			-3.476
191005.000			27.810			-3.476
191104.000			27.809			-3.476
191204.000			27.808			-3.476
191305.000			27.808			-3.476
191404.000			27.807			-3.476
191504.000			27.807			-3.476
191604.000			27.807			-3.476
191704.000			27.806			-3.476
191804.000			27.804			-3.476
191905.000			27.805			-3.476
192004.000			27.805			-3.476
192104.000			27.804			-3.476
192205.000			27.804			-3.476
192304.000			27.804			-3.475
192404.000			27.803			-3.475
192504.000			27.802			-3.475
192604.000			27.802			-3.475
192704.000			27.803			-3.475
192805.000			27.802			-3.475
192904.000			27.801			-3.475
193004.000			27.801			-3.475
193105.000			27.799			-3.475
193204.000			27.800			-3.475
193304.000			27.799			-3.475
193404.000			27.797			-3.475
193504.000			27.797			-3.475
193604.000			27.798			-3.475
193705.000			27.797			-3.475
193804.000			27.797			-3.475
193904.000			27.797			-3.475
194005.000			27.797			-3.475
194104.000			27.796			-3.475
194205.000			27.796			-3.474
194304.000			27.795			-3.474
194404.000			27.794			-3.474
194504.000			27.795			-3.474
194604.000			27.795			-3.474
194704.000			27.793			-3.474
194805.000			27.792			-3.474
194904.000			27.792			-3.474
195004.000			27.791			-3.474
195105.000			27.791			-3.474
195204.000			27.791			-3.474
195304.000			27.791			-3.474
195404.000			27.789			-3.474
195504.000			27.789			-3.474
195603.000			27.789			-3.474
195705.000			27.789			-3.474
195804.000			27.789			-3.474
195904.000			27.788			-3.473
196005.000			27.787			-3.473
196104.000			27.787			-3.473
196204.000			27.786			-3.473
196305.000			27.786			-3.473
196404.000			27.786			-3.473
196503.000			27.785			-3.473
196605.000			27.784			-3.473
196703.000			27.785			-3.473
196804.000			27.785			-3.473
196905.000			27.783			-3.473
197004.000			27.784			-3.473
197104.000			27.784			-3.473
197204.000			27.784			-3.473
197304.000			27.782			-3.473
197405.000			27.781			-3.473
197504.000			27.781			-3.473
197603.000			27.780			-3.473
197705.000			27.779			-3.472
197803.000			27.779			-3.472
197904.000			27.779			-3.472
198005.000			27.778			-3.472
198104.000			27.777			-3.472
198204.000			27.777			-3.472
198305.000			27.776			-3.472
198404.000			27.776			-3.472
198504.000			27.775			-3.472
198605.000			27.774			-3.472
198703.000			27.775			-3.472
198804.000			27.776			-3.472
198904.000			27.775			-3.472
199004.000			27.774			-3.472
199104.000			27.774			-3.472
199205.000			27.773			-3.472
199304.000			27.773			-3.472
199404.000			27.773			-3.472
199505.000			27.772			-3.472
199604.000			27.772			-3.471
199704.000			27.770			-3.471
199804.000			27.770			-3.471
199904.000			27.771			-3.471
200003.000			27.771			-3.471
200105.000			27.770			-3.471
200204.000			27.769			-3.471
200304.000			27.768			-3.471
200405.000			27.768			-3.471
200504.000			27.768			-3.471
200605.000			27.766			-3.471
200703.000			27.765			-3.471
200804.000			27.765			-3.471
200904.000			27.765			-3.471
201004.000			27.765			-3.471
201104.000			27.765			-3.471
201205.000			27.764			-3.470
201304.000			27.764			-3.470
201404.000			27.763			-3.470
201505.000			27.763			-3.470
201603.000			27.763			-3.470
201704.000			27.762			-3.470
201804.000			27.761			-3.470
201904.000			27.760			-3.470
202004.000			27.760			-3.470
202105.000			27.761			-3.470
202204.000			27.760			-3.470
202304.000			27.759			-3.470
202405.000			27.759			-3.470
202503.000			27.757			-3.470
202604.000			27.758			-3.470
202704.000			27.757			-3.470
202804.000			27.757			-3.470
202904.000			27.756			-3.470
203005.000			27.756			-3.470
203104.000			27.756			-3.469
203204.000			27.754			-3.469
203305.000			27.754			-3.469
203404.000			27.753			-3.469
203504.000			27.754			-3.469
203603.000			27.754			-3.469
203704.000			27.753			-3.469
203805.000			27.752			-3.469
203904.000			27.752			-3.469
204004.000			27.752			-3.469
204105.000			27.751			-3.469
204204.000			27.750			-3.469
204304.000			27.750			-3.469
204405.000			27.750			-3.469
204503.000			27.749			-3.469
204604.000			27.749			-3.469
204705.000			27.749			-3.469
204804.000			27.748			-3.468
204904.000			27.746			-3.468
205005.000			27.747			-3.468
205104.000			27.747			-3.468
205204.000			27.747			-3.468
205305.000			27.746			-3.468
205403.000			27.745			-3.468
205504.000			27.746			-3.468
205605.000			27.746			-3.468
205704.000			27.745			-3.468
205804.000			27.745			-3.468
205905.000			27.744			-3.468
206004.000			27.744			-3.468
206104.000			27.742			-3.468
206205.000			27.742			-3.468
206303.000			27.742			-3.468
206404.000			27.740			-3.468
206505.000			27.740			-3.468
206604.000			27.741			-3.468
206704.000			27.740			-3.468
206804.000			27.740			-3.467
206904.000			27.740			-3.467
207005.000			27.738			-3.467
207104.000			27.738			-3.467
207203.000			27.738			-3.467
207305.000			27.737			-3.467
207404.000			27.736			-3.467
207504.000			27.736			-3.467
207605.000			27.737			-3.467
207704.000			27.735			-3.467
207804.000			27.736			-3.467
207905.000			27.736			-3.467
208004.000			27.734			-3.467
208103.000			27.732			-3.466
208205.000			27.732			-3.467
208304.000			27.732			-3.466
208404.000			27.732			-3.466
208505.000			27.731			-3.466
208604.000			27.731			-3.466
208704.000			27.731			-3.466
208805.000			27.731			-3.466
208904.000			27.731			-3.466
209003.000			27.731			-3.466
209105.000			27.730			-3.466
209204.000			27.728			-3.466
209304.000			27.729			-3.466
209405.000			27.728			-3.466
209504.000			27.728			-3.466
209604.000			27.728			-3.466
209705.000			27.727			-3.466
209804.000			27.726			-3.466
209903.000			27.726			-3.466
210005.000			27.725			-3.466
210104.000			27.724			-3.466
210205.000			27.725			-3.466
210304.000			27.724			-3.465
210404.000			27.724			-3.465
210505.000			27.723			-3.465
210604.000			27.723			-3.465
210704.000			27.723			-3.465
210804.000			27.723			-3.465
210904.000			27.722			-3.465
211004.000			27.721			-3.465
211105.000			27.721			-3.465
211204.000			27.721			-3.465
211304.000			27.721			-3.465
211405.000			27.719			-3.465
211503.000			27.718			-3.465
211604.000			27.718			-3.465
211705.000			27.718			-3.465
211804.000			27.718			-3.465
211904.000			27.718			-3.465
212005.000			27.717			-3.465
212104.000			27.716			-3.465
212204.000			27.716			-3.464
212305.000			27.716			-3.464
212403.000			27.716			-3.464
212504.000			27.716			-3.464
212605.000			27.715			-3.464
212704.000			27.715			-3.464
212804.000			27.715			-3.464
212905.000			27.714			-3.464
213004.000			27.714			-3.464
213104.000			27.712			-3.464
213205.000			27.711			-3.464
213303.000			27.710			-3.464
213405.000			27.712			-3.464
213504.000			27.711			-3.464
213604.000			27.710			-3.464
213705.000			27.710			-3.464
213804.000			27.711			-3.464
213904.000			27.710			-3.464
214004.000			27.709			-3.464
214104.000			27.708			-3.464
214203.000			27.707			-3.463
214305.000			27.707			-3.463
214404.000			27.707			-3.463
214504.000			27.707			-3.463
214605.000			27.707			-3.463
214704.000			27.706			-3.463
214804.000			27.706			-3.463
214904.000			27.705			-3.463
215004.000			27.704			-3.463
215104.000			27.704			-3.463
215205.000			27.703			-3.463
215304.000			27.704			-3.463
215404.000			27.704			-3.463
215505.000			27.703			-3.463
215604.000			27.701			-3.463
215704.000			27.702			-3.463
215804.000			27.702			-3.463
215904.000			27.702			-3.463
216004.000			27.701			-3.463
216105.000			27.701			-3.463
216204.000			27.700			-3.463
216304.000			27.699			-3.462
216405.000			27.698			-3.462
216504.000			27.698			-3.462
216605.000			27.698			-3.462
216703.000			27.698			-3.462
216804.000			27.698			-3.462
216905.000			27.697			-3.462
217004.000			27.697			-3.462
217104.000			27.697			-3.462
217205.000			27.697			-3.462
217304.000			27.696			-3.462
217404.000			27.695			-3.462
217505.000			27.694			-3.462
217603.000			27.695			-3.462
217704.000			27.695			-3.462
217804.000			27.694			-3.462
217904.000			27.693			-3.462
218004.000			27.692			-3.462
218105.000			27.692			-3.462
218204.000			27.692			-3.461
218304.000			27.692			-3.461
218405.000			27.692			-3.461
218504.000			27.691			-3.461
218604.000			27.691			-3.461
218704.000			27.690			-3.461
218804.000			27.690			-3.461
218904.000			27.690			-3.461
219005.000			27.690			-3.461
219104.000			27.689			-3.461
219204.000			27.688			-3.461
219305.000			27.687			-3.461
219404.000			27.687			-3.461
219504.000			27.686			-3.461
219603.000			27.686			-3.461
219704.000			27.687			-3.461
219804.000			27.686			-3.461
219904.000			27.685			-3.461
220004.000			27.685			-3.461
220105.000			27.685			-3.461
220204.000			27.684			-3.460
220304.000			27.683			-3.460
220405.000			27.683			-3.460
220504.000			27.683			-3.460
220604.000			27.682			-3.460
220704.000			27.682			-3.460
220804.000			27.682			-3.460
220904.000			27.681			-3.460
221005.000			27.681			-3.460
221104.000			27.680			-3.460
221204.000			27.680			-3.460
221305.000			27.679			-3.460
221404.000			27.679			-3.460
221504.000			27.678			-3.460
221604.000			27.678			-3.460
221704.000			27.677			-3.460
221804.000			27.677			-3.460
221905.000			27.675			-3.459
222004.000			27.675			-3.459
222104.000			27.677			-3.460
222205.000			27.676			-3.460
222304.000			27.677			-3.460
222404.000			27.676			-3.459
222504.000			27.674			-3.459
222604.000			27.674			-3.459
222704.000			27.673			-3.459
222804.000			27.673			-3.459
222904.000			27.672			-3.459
223005.000			27.672			-3.459
223104.000			27.672			-3.459
223204.000			27.672			-3.459
223305.000			27.671			-3.459
223403.000			27.671			-3.459
223504.000			27.671			-3.459
223605.000			27.670			-3.459
223704.000			27.670			-3.459
223804.000			27.670			-3.459
223905.000			27.669			-3.459
224004.000			27.667			-3.458
224104.000			27.667			-3.458
224205.000			27.668			-3.459
224303.000			27.667			-3.458
224404.000			27.667			-3.458
224505.000			27.667			-3.458
224604.000			27.666			-3.458
224704.000			27.665			-3.458
224805.000			27.665			-3.458
224904.000			27.665			-3.458
225004.000			27.665			-3.458
225105.000			27.664			-3.458
225203.000			27.663			-3.458
225304.000			27.664			-3.458
225405.000			27.664			-3.458
225504.000			27.663			-3.458
225604.000			27.663			-3.458
225705.000			27.663			-3.458
225804.000			27.661			-3.458
225904.000			27.661			-3.458
226005.000			27.662			-3.458
226103.000			27.661			-3.458
226205.000			27.661			-3.458
226304.000			27.661			-3.458
226404.000			27.659			-3.457
226505.000			27.659			-3.457
226604.000			27.658			-3.457
226704.000			27.658			-3.457
226805.000			27.659			-3.457
226904.000			27.657			-3.457
227003.000			27.657			-3.457
227105.000			27.658			-3.457
227204.000			27.656			-3.457
227304.000			27.656			-3.457
227405.000			27.656			-3.457
227504.000			27.656			-3.457
227604.000			27.656			-3.457
227705.000			27.654			-3.457
227804.000			27.654			-3.457
227903.000			27.654			-3.457
228005.000			27.652			-3.457
228103.000			27.653			-3.457
228204.000			27.653			-3.457
228305.000			27.652			-3.457
228404.000			27.652			-3.456
228504.000			27.652			-3.456
228605.000			27.651			-3.456
228704.000			27.650			-3.456
228803.000			27.650			-3.456
228905.000			27.650			-3.456
229003.000			27.650			-3.456
229104.000			27.649			-3.456
229205.000			27.648			-3.456
229304.000			27.648			-3.456
229405.000			27.647			-3.456
229504.000			27.647			-3.456
229604.000			27.647			-3.456
229705.000			27.647			-3.456
229804.000			27.646			-3.456
229903.000			27.646			-3.456
230005.000			27.647			-3.456
230104.000			27.645			-3.456
230204.000			27.644			-3.456
230305.000			27.645			-3.456
230404.000			27.644			-3.456
230504.000			27.644			-3.455
230605.000			27.643			-3.455
230704.000			27.642			-3.455
230803.000			27.642			-3.455
230905.000			27.642			-3.455
231004.000			27.641			-3.455
231104.000			27.640			-3.455
231205.000			27.640			-3.455
231304.000			27.641			-3.455
231404.000			27.640			-3.455
231505.000			27.639			-3.455
231604.000			27.638			-3.455
231703.000			27.639			-3.455
231805.000			27.639			-3.455
231904.000			27.638			-3.455
232004.000			27.638			-3.455
232105.000			27.637			-3.455
232204.000			27.638			-3.455
232304.000			27.637			-3.455
232404.000			27.636			-3.455
232504.000			27.636			-3.455
232604.000			27.635			-3.454
232704.000			27.634			-3.454
232804.000			27.634			-3.454
232905.000			27.634			-3.454
233004.000			27.634			-3.454
233104.000			27.634			-3.454
233205.000			27.633			-3.454
233304.000			27.632			-3.454
233404.000			27.632			-3.454
233504.000			27.633			-3.454
233604.000			27.634			-3.454
233704.000			27.632			-3.454
233805.000			27.631			-3.454
233904.000			27.630			-3.454
234004.000			27.630			-3.454
234105.000			27.630			-3.454
234204.000			27.630			-3.454
234304.000			27.629			-3.454
234404.000			27.628			-3.453
234504.000			27.627			-3.453
234604.000			27.628			-3.454
234705.000			27.627			-3.453
234804.000			27.627			-3.453
234904.000			27.627			-3.453
235005.000			27.626			-3.453
235104.000			27.626			-3.453
235204.000			27.625			-3.453
235304.000			27.626			-3.453
235404.000			27.625			-3.453
235504.000			27.624			-3.453
235604.000			27.624			-3.453
235704.000			27.623			-3.453
235805.000			27.623			-3.453
235904.000			27.623			-3.453
236004.000			27.622			-3.453
236105.000			27.621			-3.453
236203.000			27.622			-3.453
236304.000			27.622			-3.453
236405.000			27.621			-3.453
236504.000			27.621			-3.453
236604.000			27.621			-3.453
236705.000			27.619			-3.452
236804.000			27.619			-3.452
236904.000			27.619			-3.452
237005.000			27.618			-3.452
237103.000			27.619			-3.452
237204.000			27.619			-3.452
237305.000			27.618			-3.452
237404.000			27.617			-3.452
237504.000			27.617			-3.452
237605.000			27.617			-3.452
237704.000			27.616			-3.452
237804.000			27.616			-3.452
237905.000			27.615			-3.452
238003.000			27.614			-3.452
238104.000			27.614			-3.452
238204.000			27.615			-3.452
238304.000			27.614			-3.452
238404.000			27.614			-3.452
238505.000			27.614			-3.452
238604.000			27.613			-3.452
238704.000			27.613			-3.452
238805.000			27.612			-3.451
238903.000			27.611			-3.451
239005.000			27.611			-3.451
239103.000			27.611			-3.451
239204.000			27.611			-3.451
239305.000			27.611			-3.451
239404.000			27.611			-3.451
239504.000			27.611			-3.451
239605.000			27.609			-3.451
239704.000			27.608			-3.451
239803.000			27.607			-3.451
239905.000			27.607			-3.451
240004.000			27.607			-3.451
240104.000			27.608			-3.451
240205.000			27.608			-3.451
240304.000			27.606			-3.451
240404.000			27.606			-3.451
240505.000			27.607			-3.451
240604.000			27.605			-3.451
240703.000			27.605			-3.451
240805.000			27.605			-3.451
240904.000			27.605			-3.451
241004.000			27.604			-3.451
241105.000			27.603			-3.450
241204.000			27.603			-3.450
241304.000			27.602			-3.450
241405.000			27.602			-3.450
241504.000			27.603			-3.450
241603.000			27.603			-3.450
241705.000			27.602			-3.450
241804.000			27.602			-3.450
241904.000			27.601			-3.450
242005.000			27.600			-3.450
242104.000			27.600			-3.450
242205.000			27.599			-3.450
242304.000			27.598			-3.450
242404.000			27.599			-3.450
242504.000			27.598			-3.450
242604.000			27.598			-3.450
242704.000			27.599			-3.450
242805.000			27.599			-3.450
242904.000			27.598			-3.450
243004.000			27.597			-3.450
243105.000			27.597			-3.450
243204.000			27.596			-3.450
243304.000			27.595			-3.449
243404.000			27.595			-3.449
243504.000			27.595			-3.449
243603.000			27.594			-3.449
243705.000			27.594			-3.449
243804.000			27.594			-3.449
243904.000			27.594			-3.449
244005.000			27.593			-3.449
244104.000			27.593			-3.449
244204.000			27.594			-3.449
244304.000			27.593			-3.449
244404.000			27.592			-3.449
244503.000			27.590			-3.449
244605.000			27.591			-3.449
244704.000			27.591			-3.449
244804.000			27.591			-3.449
244905.000			27.590			-3.449
245004.000			27.590			-3.449
245104.000			27.589			-3.449
245204.000			27.588			-3.449
245304.000			27.588			-3.449
245404.000			27.589			-3.449
245504.000			27.589			-3.449
245604.000			27.588			-3.449
245705.000			27.588			-3.448
245804.000			27.587			-3.448
245904.000			27.587			-3.448
246005.000			27.587			-3.448
246104.000			27.586			-3.448
246204.000			27.585			-3.448
246304.000			27.585			-3.448
246404.000			27.584			-3.448
246503.000			27.584			-3.448
246605.000			27.583			-3.448
246704.000			27.584			-3.448
246804.000			27.584			-3.448
246905.000			27.582			-3.448
247004.000			27.582			-3.448
247104.000			27.583			-3.448
247204.000			27.583			-3.448
247304.000			27.583			-3.448
247403.000			27.581			-3.448
247505.000			27.580			-3.447
247604.000			27.580			-3.447
247704.000			27.580			-3.448
247805.000			27.581			-3.448
247904.000			27.580			-3.447
248004.000			27.578			-3.447
248105.000			27.578			-3.447
248204.000			27.578			-3.447
248303.000			27.578			-3.447
248405.000			27.579			-3.447
248504.000			27.577			-3.447
248605.000			27.577			-3.447
248704.000			27.577			-3.447
248804.000			27.576			-3.447
248905.000			27.575			-3.447
249004.000			27.575			-3.447
249104.000			27.575			-3.447
249204.000			27.575			-3.447
249304.000			27.574			-3.447
249403.000			27.574			-3.447
249505.000			27.574			-3.447
249604.000			27.574			-3.447
249704.000			27.573			-3.447
249805.000			27.573			-3.447
249904.000			27.573			-3.447
250004.000			27.571			-3.446
250105.000			27.571			-3.446
250204.000			27.571			-3.446
250303.000			27.572			-3.446
250405.000			27.570			-3.446
250504.000			27.570			-3.446
250604.000			27.570			-3.446
250705.000			27.570			-3.446
250804.000			27.569			-3.446
250904.000			27.569			-3.446
251005.000			27.568			-3.446
251104.000			27.567			-3.446
251203.000			27.567			-3.446
251305.000			27.566			-3.446
251404.000			27.565			-3.446
251504.000			27.565			-3.446
251605.000			27.567			-3.446
251704.000			27.567			-3.446
251805.000			27.566			-3.446
251904.000			27.565			-3.446
252004.000			27.564			-3.445
252104.000			27.563			-3.445
252204.000			27.564			-3.445
252303.000			27.564			-3.445
252405.000			27.564			-3.445
252504.000			27.564			-3.445
252604.000			27.561			-3.445
252705.000			27.561			-3.445
252804.000			27.561			-3.445
252904.000			27.562			-3.445
253004.000			27.561			-3.445
253104.000			27.561			-3.445
253203.000			27.560			-3.445
253305.000			27.560			-3.445
253404.000			27.560			-3.445
253504.000			27.559			-3.445
253605.000			27.558			-3.445
253704.000			27.558			-3.445
253804.000			27.559			-3.445
253904.000			27.559			-3.445
254004.000			27.559			-3.445
254103.000			27.557			-3.445
254205.000			27.556			-3.445
254304.000			27.556			-3.445
254404.000			27.556			-3.444
254505.000			27.555			-3.444
254604.000			27.555			-3.444
254704.000			27.555			-3.444
254804.000			27.554			-3.444
254904.000			27.554			-3.444
255004.000			27.555			-3.444
255104.000			27.553			-3.444
255204.000			27.553			-3.444
255305.000			27.554			-3.444
255404.000			27.553			-3.444
255504.000			27.552			-3.444
255605.000			27.551			-3.444
255704.000			27.550			-3.444
255804.000			27.551			-3.444
255904.000			27.551			-3.444
256004.000			27.551			-3.444
256104.000			27.550			-3.444
256205.000			27.549			-3.444
256304.000			27.550			-3.444
256404.000			27.549			-3.444
256505.000			27.549			-3.444
256604.000			27.548			-3.444
256704.000			27.548			-3.443
256804.000			27.548			-3.443
256904.000			27.548			-3.443
257004.000			27.548			-3.444
257105.000			27.547			-3.443
257204.000			27.546			-3.443
257304.000			27.546			-3.443
257405.000			27.546			-3.443
257504.000			27.547			-3.443
257604.000			27.545			-3.443
257704.000			27.545			-3.443
257804.000			27.545			-3.443
257903.000			27.544			-3.443
258005.000			27.543			-3.443
258104.000			27.543			-3.443
258205.000			27.543			-3.443
258304.000			27.543			-3.443
258404.000			27.542			-3.443
258505.000			27.542			-3.443
258604.000			27.541			-3.443
258704.000			27.542			-3.443
258804.000			27.542			-3.443
258904.000			27.541			-3.443
259004.000			27.541			-3.443
259105.000			27.540			-3.443
259204.000			27.540			-3.443
259304.000			27.540			-3.442
259405.000			27.539			-3.442
259504.000			27.539			-3.442
259604.000			27.538			-3.442
259704.000			27.538			-3.442
259804.000			27.538			-3.442
259904.000			27.537			-3.442
260005.000			27.537			-3.442
260104.000			27.537			-3.442
260204.000			27.537			-3.442
260305.000			27.536			-3.442
260404.000			27.536			-3.442
260504.000			27.536			-3.442
260604.000			27.535			-3.442
260704.000			27.534			-3.442
260804.000			27.534			-3.442
260905.000			27.534			-3.442
261004.000			27.534			-3.442
261104.000			27.533			-3.442
261205.000			27.533			-3.442
261304.000			27.532			-3.441
261405.000			27.532			-3.441
261503.000			27.532			-3.442
261604.000			27.531			-3.441
261705.000			27.531			-3.441
261804.000			27.531			-3.441
261904.000			27.530			-3.441
262005.000			27.530			-3.441
262104.000			27.530			-3.441
262204.000			27.530			-3.441
262305.000			27.530			-3.441
262403.000			27.529			-3.441
262504.000			27.529			-3.441
262605.000			27.528			-3.441
262704.000			27.528			-3.441
262804.000			27.528			-3.441
262905.000			27.527			-3.441
263004.000			27.528			-3.441
263104.000			27.527			-3.441
263205.000			27.526			-3.441
263303.000			27.525			-3.441
263404.000			27.525			-3.441
263505.000			27.524			-3.441
263604.000			27.524			-3.441
263704.000			27.524			-3.441
263805.000			27.524			-3.441
263904.000			27.523			-3.440
264004.000			27.523			-3.440
264105.000			27.523			-3.440
264203.000			27.523			-3.440
264304.000			27.522			-3.440
264405.000			27.523			-3.440
264504.000			27.523			-3.440
264605.000			27.522			-3.440
264704.000			27.520			-3.440
264804.000			27.520			-3.440
264905.000			27.520			-3.440
265004.000			27.520			-3.440
265103.000			27.519			-3.440
265205.000			27.519			-3.440
265304.000			27.519			-3.440
265404.000			27.519			-3.440
265505.000			27.518			-3.440
265604.000			27.519			-3.440
265704.000			27.517			-3.440
265805.000			27.516			-3.440
265904.000			27.517			-3.440
266003.000			27.517			-3.440
266105.000			27.517			-3.440
266204.000			27.516			-3.440
266304.000			27.517			-3.440
266405.000			27.516			-3.439
266504.000			27.516			-3.440
266604.000			27.515			-3.439
266705.000			27.514			-3.439
266804.000			27.514			-3.439
266903.000			27.513			-3.439
267005.000			27.513			-3.439
267104.000			27.513			-3.439
267204.000			27.513			-3.439
267305.000			27.512			-3.439
267404.000			27.513			-3.439
267504.000			27.512			-3.439
267604.000			27.512			-3.439
267704.000			27.512			-3.439
267804.000			27.510			-3.439
267904.000			27.509			-3.439
268003.000			27.511			-3.439
268105.000			27.510			-3.439
268204.000			27.509			-3.439
268304.000			27.508			-3.439
268405.000			27.509			-3.439
268504.000			27.509			-3.439
268604.000			27.508			-3.439
268704.000			27.508			-3.438
268804.000			27.507			-3.438
268903.000			27.507			-3.438
269005.000			27.507			-3.438
269104.000			27.506			-3.438
269204.000			27.507			-3.438
269305.000			27.505			-3.438
269404.000			27.505			-3.438
269504.000			27.506			-3.438
269604.000			27.506			-3.438
269704.000			27.504			-3.438
269803.000			27.505			-3.438
269905.000			27.505			-3.438
270004.000			27.504			-3.438
270104.000			27.504			-3.438
270205.000			27.503			-3.438
270304.000			27.503			-3.438
270404.000			27.502			-3.438
270504.000			27.501			-3.438
270604.000			27.502			-3.438
270703.000			27.501			-3.438
270805.000			27.501			-3.438
270904.000			27.501			-3.438
271005.000			27.500			-3.437
271104.000			27.499			-3.437
271204.000			27.500			-3.438
271305.000			27.500			-3.437
271404.000			27.500			-3.437
271504.000			27.499			-3.437
271604.000			27.499			-3.437
271704.000			27.499			-3.437
271804.000			27.498			-3.437
271905.000			27.497			-3.437
272004.000			27.496			-3.437
272104.000			27.497			-3.437
272205.000			27.497			-3.437
272304.000			27.496			-3.437
272404.000			27.496			-3.437
272504.000			27.495			-3.437
272604.000			27.494			-3.437
272704.000			27.495			-3.437
272805.000			27.496			-3.437
272904.000			27.493			-3.437
273004.000			27.493			-3.437
273105.000			27.493			-3.437
273204.000			27.493			-3.437
273304.000			27.493			-3.437
273404.000			27.493			-3.437
273504.000			27.493			-3.437
273603.000			27.491			-3.436
273705.000			27.491			-3.436
273804.000			27.490			-3.436
273904.000			27.490			-3.436
274005.000			27.491			-3.436
274104.000			27.491			-3.436
274205.000			27.490			-3.436
274303.000			27.489			-3.436
274404.000			27.490			-3.436
274504.000			27.490			-3.436
274604.000			27.488			-3.436
274704.000			27.489			-3.436
274805.000			27.489			-3.436
274904.000			27.487			-3.436
275004.000			27.488			-3.436
275105.000			27.487			-3.436
275204.000			27.486			-3.436
275304.000			27.486			-3.436
275404.000			27.486			-3.436
275504.000			27.486			-3.436
275604.000			27.487			-3.436
275705.000			27.486			-3.436
275804.000			27.484			-3.435
275904.000			27.484			-3.435
276005.000			27.485			-3.436
276104.000			27.484			-3.436
276204.000			27.484			-3.435
276304.000			27.483			-3.435
276404.000			27.483			-3.435
276503.000			27.484			-3.435
276605.000			27.483			-3.435
276704.000			27.483			-3.435
276804.000			27.483			-3.435
276905.000			27.482			-3.435
277004.000			27.481			-3.435
277104.000			27.481			-3.435
277204.000			27.480			-3.435
277304.000			27.480			-3.435
277404.000			27.480			-3.435
277504.000			27.479			-3.435
277604.000			27.479			-3.435
277705.000			27.478			-3.435
277804.000			27.479			-3.435
277904.000			27.479			-3.435
278005.000			27.477			-3.435
278104.000			27.477			-3.435
278204.000			27.478			-3.435
278304.000			27.478			-3.435
278404.000			27.478			-3.435
278503.000			27.477			-3.435
278605.000			27.476			-3.435
278704.000			27.475			-3.434
278804.000			27.475			-3.434
278905.000			27.474			-3.434
279004.000			27.474			-3.434
279104.000			27.475			-3.434
279204.000			27.475			-3.434
279304.000			27.474			-3.434
279403.000			27.474			-3.434
279505.000			27.472			-3.434
279604.000			27.471			-3.434
279704.000			27.472			-3.434
279805.000			27.472			-3.434
279904.000			27.472			-3.434
280004.000			27.472			-3.434
280105.000			27.472			-3.434
280204.000			27.470			-3.434
280303.000			27.470			-3.434
280405.000			27.469			-3.434
280504.000			27.470			-3.434
280605.000			27.469			-3.434
280704.000			27.469			-3.434
280804.000			27.468			-3.433
280905.000			27.469			-3.434
281004.000			27.469			-3.434
281104.000			27.469			-3.434
281204.000			27.468			-3.433
281304.000			27.467			-3.433
281403.000			27.466			-3.433
281505.000			27.467			-3.433
281604.000			27.467			-3.433
281704.000			27.466			-3.433
281805.000			27.466			-3.433
281904.000			27.466			-3.433
282004.000			27.465			-3.433
282104.000			27.464			-3.433
282204.000			27.464			-3.433
282303.000			27.464			-3.433
282405.000			27.464			-3.433
282504.000			27.463			-3.433
282604.000			27.463			-3.433
282705.000			27.462			-3.433
282804.000			27.462			-3.433
282904.000			27.463			-3.433
283004.000			27.463			-3.433
283104.000			27.461			-3.433
283203.000			27.461			-3.433
283305.000			27.461			-3.433
283404.000			27.461			-3.433
283504.000			27.461			-3.433
283605.000			27.461			-3.433
283704.000			27.460			-3.433
283805.000			27.460			-3.432
283904.000			27.459			-3.432
284004.000			27.458			-3.432
284104.000			27.458			-3.432
284204.000			27.458			-3.432
284304.000			27.459			-3.432
284405.000			27.458			-3.432
284504.000			27.458			-3.432
284604.000			27.457			-3.432
284705.000			27.457			-3.432
284804.000			27.457			-3.432
284904.000			27.457			-3.432
285004.000			27.455			-3.432
285104.000			27.455			-3.432
285204.000			27.455			-3.432
285305.000			27.455			-3.432
285404.000			27.456			-3.432
285504.000			27.456			-3.432
285605.000			27.455			-3.432
285704.000			27.453			-3.432
285804.000			27.452			-3.432
285904.000			27.452			-3.432
286004.000			27.453			-3.432
286103.000			27.451			-3.431
286205.000			27.451			-3.431
286304.000			27.452			-3.431
286404.000			27.451			-3.431
286505.000			27.451			-3.431
286604.000			27.451			-3.431
286704.000			27.451			-3.431
286803.000			27.451			-3.431
286904.000			27.450			-3.431
287004.000			27.451			-3.431
287104.000			27.450			-3.431
287204.000			27.449			-3.431
287305.000			27.449			-3.431
287404.000			27.447			-3.431
287504.000			27.447			-3.431
287605.000			27.448			-3.431
287704.000			27.447			-3.431
287804.000			27.447			-3.431
287904.000			27.447			-3.431
288004.000			27.447			-3.431
288104.000			27.447			-3.431
288205.000			27.446			-3.431
288304.000			27.445			-3.431
288404.000			27.445			-3.431
288505.000			27.445			-3.431
288604.000			27.445			-3.431
288704.000			27.444			-3.431
288804.000			27.444			-3.430
288904.000			27.444			-3.430
289003.000			27.443			-3.430
289105.000			27.443			-3.430
289204.000			27.443			-3.430
289304.000			27.443			-3.430
289405.000			27.443			-3.430
289504.000			27.443			-3.430
289604.000			27.441			-3.430
289704.000			27.441			-3.430
289804.000			27.441			-3.430
289903.000			27.441			-3.430
290005.000			27.441			-3.430
290104.000			27.440			-3.430
290205.000			27.439			-3.430
290304.000			27.439			-3.430
290404.000			27.439			-3.430
290505.000			27.437			-3.430
290603.000			27.437			-3.430
290704.000			27.438			-3.430
290804.000			27.439			-3.430
290904.000			27.438			-3.430
291004.000			27.438			-3.430
291105.000			27.438			-3.430
291204.000			27.436			-3.430
291304.000			27.437			-3.430
291405.000			27.437			-3.430
291504.000			27.437			-3.430
291604.000			27.437			-3.430
291704.000			27.436			-3.430
291804.000			27.435			-3.429
291904.000			27.433			-3.429
292005.000			27.434			-3.429
292104.000			27.435			-3.429
292204.000			27.434			-3.429
292305.000			27.434			-3.429
292404.000			27.434			-3.429
292504.000			27.433			-3.429
292604.000			27.433			-3.429
292704.000			27.433			-3.429
292804.000			27.432			-3.429
292905.000			27.432			-3.429
293004.000			27.431			-3.429
293104.000			27.431			-3.429
293205.000			27.431			-3.429
293304.000			27.432			-3.429
293405.000			27.431			-3.429
293503.000			27.431			-3.429
293604.000			27.430			-3.429
293705.000			27.429			-3.429
293804.000			27.430			-3.429
293904.000			27.430			-3.429
294005.000			27.429			-3.429
294104.000			27.428			-3.429
294204.000			27.428			-3.429
294305.000			27.428			-3.428
294403.000			27.428			-3.428
294504.000			27.427			-3.428
294605.000			27.428			-3.428
294704.000			27.428			-3.429
294804.000			27.427			-3.428
294905.000			27.427			-3.428
295004.000			27.425			-3.428
295104.000			27.425			-3.428
295205.000			27.425			-3.428
295303.000			27.425			-3.428
295404.000			27.426			-3.428
295505.000			27.425			-3.428
295604.000			27.425			-3.428
295704.000			27.425			-3.428
295805.000			27.424			-3.428
295904.000			27.424			-3.428
296004.000			27.424			-3.428
296105.000			27.423			-3.428
296203.000			27.422			-3.428
296304.000			27.422			-3.428
296403.000			27.422			-3.428
296504.000			27.423			-3.428
296605.000			27.424			-3.428
296704.000			27.423			-3.428
296804.000			27.421			-3.428
296905.000			27.420			-3.428
297004.000			27.420			-3.428
297103.000			27.421			-3.428
297205.000			27.420			-3.428
297303.000			27.421			-3.428
297404.000			27.420			-3.427
297505.000			27.420			-3.427
297604.000			27.419			-3.427
297704.000			27.419			-3.427
297805.000			27.419			-3.427
297904.000			27.418			-3.427
298004.000			27.420			-3.427
298105.000			27.420			-3.427
298203.000			27.419			-3.427
298304.000			27.419			-3.427
298405.000			27.420			-3.427
298504.000			27.419			-3.427
298604.000			27.419			-3.427
298705.000			27.419			-3.427
298804.000			27.418			-3.427
298904.000			27.418			-3.427
299005.000			27.418			-3.427
299103.000			27.417			-3.427
299204.000			27.416			-3.427
299304.000			27.416			-3.427
299404.000			27.417			-3.427
299504.000			27.417			-3.427
299604.000			27.416			-3.427
299704.000			27.416			-3.427
299805.000			27.415			-3.427
299904.000			27.414			-3.427
