# Acquired on 25/01/2024 14:40:16 
# SPIDER: Creep_-5mm_GRPCNT1454A-3
# CREEP MEASUREMENT

# time [ms]		force [N]		stiffness [N/mm]
1.000			21.340			-4.268
104.000			21.921			-4.384
204.000			21.945			-4.389
305.000			21.747			-4.349
404.000			21.589			-4.318
504.000			21.368			-4.274
605.000			21.281			-4.256
704.000			21.205			-4.241
804.000			21.138			-4.228
905.000			21.077			-4.215
1004.000			21.022			-4.204
1104.000			20.972			-4.194
1204.000			20.882			-4.176
1304.000			20.841			-4.168
1404.000			20.803			-4.161
1504.000			20.768			-4.154
1604.000			20.734			-4.147
1704.000			20.703			-4.141
1804.000			20.673			-4.135
1904.000			20.645			-4.129
2005.000			20.590			-4.118
2104.000			20.565			-4.113
2204.000			20.542			-4.108
2305.000			20.519			-4.104
2403.000			20.497			-4.099
2504.000			20.475			-4.095
2605.000			20.454			-4.091
2704.000			20.416			-4.083
2804.000			20.398			-4.080
2904.000			20.380			-4.076
3004.000			20.362			-4.072
3104.000			20.345			-4.069
3205.000			20.329			-4.066
3304.000			20.313			-4.063
3404.000			20.284			-4.057
3505.000			20.268			-4.054
3603.000			20.254			-4.051
3704.000			20.240			-4.048
3805.000			20.226			-4.045
3904.000			20.213			-4.043
4004.000			20.201			-4.040
4104.000			20.189			-4.038
4204.000			20.163			-4.033
4304.000			20.152			-4.030
4405.000			20.141			-4.028
4504.000			20.129			-4.026
4604.000			20.118			-4.024
4705.000			20.107			-4.021
4803.000			20.096			-4.019
4905.000			20.076			-4.015
5004.000			20.066			-4.013
5104.000			20.055			-4.011
5205.000			20.046			-4.009
5303.000			20.036			-4.007
5404.000			20.027			-4.005
5505.000			20.017			-4.003
5604.000			19.999			-4.000
5704.000			19.991			-3.998
5805.000			19.983			-3.997
5904.000			19.974			-3.995
6003.000			19.965			-3.993
6105.000			19.957			-3.991
6204.000			19.949			-3.990
6304.000			19.932			-3.986
6405.000			19.925			-3.985
6504.000			19.917			-3.983
6604.000			19.909			-3.982
6704.000			19.903			-3.981
6804.000			19.895			-3.979
6904.000			19.888			-3.978
7005.000			19.880			-3.976
7104.000			19.866			-3.973
7203.000			19.860			-3.972
7305.000			19.852			-3.970
7404.000			19.845			-3.969
7504.000			19.840			-3.968
7605.000			19.833			-3.967
7704.000			19.827			-3.965
7804.000			19.814			-3.963
7903.000			19.808			-3.962
8004.000			19.801			-3.960
8105.000			19.795			-3.959
8204.000			19.789			-3.958
8304.000			19.783			-3.957
8405.000			19.776			-3.955
8504.000			19.765			-3.953
8603.000			19.760			-3.952
8705.000			19.754			-3.951
8804.000			19.749			-3.950
8904.000			19.743			-3.949
9005.000			19.737			-3.947
9104.000			19.732			-3.946
9204.000			19.726			-3.945
9304.000			19.716			-3.943
9404.000			19.711			-3.942
9504.000			19.706			-3.941
9605.000			19.701			-3.940
9704.000			19.697			-3.939
9804.000			19.691			-3.938
9905.000			19.685			-3.937
10003.000			19.678			-3.936
10104.000			19.672			-3.934
10205.000			19.666			-3.933
10304.000			19.660			-3.932
10404.000			19.656			-3.931
10505.000			19.652			-3.930
10604.000			19.648			-3.930
10703.000			19.639			-3.928
10805.000			19.634			-3.927
10904.000			19.628			-3.926
11004.000			19.625			-3.925
11105.000			19.621			-3.924
11204.000			19.616			-3.923
11305.000			19.612			-3.922
11403.000			19.608			-3.922
11504.000			19.599			-3.920
11605.000			19.596			-3.919
11704.000			19.591			-3.918
11804.000			19.586			-3.917
11905.000			19.583			-3.917
12004.000			19.579			-3.916
12103.000			19.575			-3.915
12205.000			19.566			-3.913
12304.000			19.562			-3.912
12404.000			19.559			-3.912
12505.000			19.556			-3.911
12604.000			19.552			-3.910
12704.000			19.547			-3.909
12804.000			19.543			-3.909
12904.000			19.536			-3.907
13004.000			19.531			-3.906
13105.000			19.527			-3.905
13204.000			19.524			-3.905
13304.000			19.523			-3.905
13405.000			19.519			-3.904
13503.000			19.514			-3.903
13604.000			19.507			-3.901
13705.000			19.504			-3.901
13804.000			19.500			-3.900
13904.000			19.496			-3.899
14004.000			19.493			-3.899
14104.000			19.491			-3.898
14203.000			19.487			-3.897
14305.000			19.483			-3.897
14404.000			19.476			-3.895
14505.000			19.474			-3.895
14604.000			19.470			-3.894
14704.000			19.466			-3.893
14805.000			19.462			-3.892
14903.000			19.459			-3.892
15004.000			19.456			-3.891
15105.000			19.449			-3.890
15204.000			19.446			-3.889
15304.000			19.444			-3.889
15405.000			19.441			-3.888
15504.000			19.438			-3.888
15603.000			19.434			-3.887
15705.000			19.432			-3.886
15804.000			19.425			-3.885
15904.000			19.422			-3.884
16005.000			19.419			-3.884
16104.000			19.416			-3.883
16204.000			19.414			-3.883
16304.000			19.411			-3.882
16404.000			19.407			-3.881
16504.000			19.401			-3.880
16605.000			19.398			-3.880
16704.000			19.396			-3.879
16804.000			19.394			-3.879
16905.000			19.390			-3.878
17003.000			19.386			-3.877
17104.000			19.384			-3.877
17205.000			19.381			-3.876
17304.000			19.375			-3.875
17404.000			19.373			-3.875
17504.000			19.370			-3.874
17604.000			19.367			-3.873
17704.000			19.365			-3.873
17804.000			19.363			-3.873
17904.000			19.360			-3.872
18005.000			19.353			-3.871
18104.000			19.351			-3.870
18204.000			19.348			-3.870
18305.000			19.346			-3.869
18403.000			19.345			-3.869
18504.000			19.341			-3.868
18605.000			19.337			-3.867
18704.000			19.333			-3.867
18804.000			19.330			-3.866
18905.000			19.329			-3.866
19004.000			19.326			-3.865
19103.000			19.324			-3.865
19205.000			19.322			-3.864
19304.000			19.318			-3.864
19404.000			19.315			-3.863
19505.000			19.310			-3.862
19604.000			19.307			-3.861
19704.000			19.305			-3.861
19804.000			19.303			-3.861
19904.000			19.301			-3.860
20004.000			19.299			-3.860
20105.000			19.296			-3.859
20204.000			19.292			-3.858
20303.000			19.290			-3.858
20405.000			19.287			-3.857
20504.000			19.284			-3.857
20604.000			19.282			-3.856
20705.000			19.280			-3.856
20804.000			19.277			-3.855
20905.000			19.273			-3.855
21003.000			19.270			-3.854
21104.000			19.269			-3.854
21205.000			19.267			-3.853
21304.000			19.264			-3.853
21404.000			19.263			-3.853
21505.000			19.261			-3.852
21604.000			19.255			-3.851
21703.000			19.253			-3.851
21805.000			19.251			-3.850
21904.000			19.249			-3.850
22004.000			19.247			-3.849
22105.000			19.245			-3.849
22204.000			19.243			-3.849
22304.000			19.241			-3.848
22404.000			19.235			-3.847
22504.000			19.233			-3.847
22604.000			19.231			-3.846
22705.000			19.229			-3.846
22804.000			19.228			-3.846
22904.000			19.227			-3.845
23005.000			19.224			-3.845
23103.000			19.219			-3.844
23204.000			19.217			-3.843
23305.000			19.215			-3.843
23404.000			19.214			-3.843
23504.000			19.211			-3.842
23604.000			19.209			-3.842
23704.000			19.208			-3.842
23803.000			19.203			-3.841
23905.000			19.203			-3.841
24004.000			19.200			-3.840
24105.000			19.196			-3.839
24204.000			19.195			-3.839
24304.000			19.193			-3.839
24405.000			19.191			-3.838
24503.000			19.189			-3.838
24604.000			19.186			-3.837
24705.000			19.183			-3.837
24804.000			19.182			-3.836
24904.000			19.180			-3.836
25005.000			19.178			-3.836
25104.000			19.176			-3.835
25203.000			19.173			-3.835
25305.000			19.171			-3.834
25404.000			19.169			-3.834
25504.000			19.167			-3.833
25605.000			19.165			-3.833
25704.000			19.163			-3.833
25804.000			19.161			-3.832
25904.000			19.159			-3.832
26004.000			19.155			-3.831
26104.000			19.153			-3.831
26205.000			19.152			-3.830
26304.000			19.151			-3.830
26403.000			19.149			-3.830
26505.000			19.147			-3.829
26604.000			19.145			-3.829
26704.000			19.143			-3.829
26805.000			19.140			-3.828
26904.000			19.139			-3.828
27004.000			19.137			-3.827
27103.000			19.135			-3.827
27204.000			19.134			-3.827
27305.000			19.132			-3.826
27404.000			19.130			-3.826
27504.000			19.126			-3.825
27605.000			19.126			-3.825
27704.000			19.123			-3.825
27803.000			19.121			-3.824
27905.000			19.119			-3.824
28004.000			19.118			-3.824
28104.000			19.116			-3.823
28205.000			19.113			-3.823
28304.000			19.111			-3.822
28404.000			19.109			-3.822
28504.000			19.107			-3.821
28604.000			19.105			-3.821
28704.000			19.103			-3.821
28805.000			19.103			-3.821
28904.000			19.099			-3.820
29004.000			19.098			-3.820
29105.000			19.097			-3.819
29203.000			19.094			-3.819
29304.000			19.092			-3.818
29405.000			19.091			-3.818
29504.000			19.090			-3.818
29604.000			19.089			-3.818
29705.000			19.084			-3.817
29804.000			19.083			-3.817
29903.000			19.082			-3.816
30005.000			19.081			-3.816
30104.000			19.079			-3.816
30204.000			19.078			-3.816
30305.000			19.076			-3.815
30404.000			19.072			-3.814
30505.000			19.071			-3.814
30603.000			19.069			-3.814
30704.000			19.067			-3.813
30805.000			19.065			-3.813
30904.000			19.065			-3.813
31004.000			19.064			-3.813
31105.000			19.060			-3.812
31204.000			19.059			-3.812
31303.000			19.058			-3.812
31405.000			19.056			-3.811
31504.000			19.054			-3.811
31604.000			19.053			-3.811
31705.000			19.052			-3.810
31804.000			19.051			-3.810
31904.000			19.047			-3.809
32004.000			19.045			-3.809
32104.000			19.045			-3.809
32204.000			19.043			-3.809
32305.000			19.041			-3.808
32404.000			19.040			-3.808
32503.000			19.039			-3.808
32605.000			19.036			-3.807
32704.000			19.034			-3.807
32804.000			19.033			-3.807
32905.000			19.032			-3.806
33004.000			19.030			-3.806
33104.000			19.028			-3.806
33204.000			19.026			-3.805
33304.000			19.024			-3.805
33404.000			19.024			-3.805
33504.000			19.022			-3.804
33604.000			19.019			-3.804
33705.000			19.018			-3.804
33804.000			19.017			-3.803
33903.000			19.015			-3.803
34005.000			19.013			-3.803
34104.000			19.011			-3.802
34204.000			19.010			-3.802
34305.000			19.009			-3.802
34404.000			19.007			-3.801
34504.000			19.006			-3.801
34604.000			19.005			-3.801
34704.000			19.003			-3.801
34804.000			19.001			-3.800
34905.000			18.999			-3.800
35004.000			18.996			-3.799
35104.000			18.996			-3.799
35205.000			18.995			-3.799
35303.000			18.994			-3.799
35404.000			18.993			-3.799
35505.000			18.990			-3.798
35604.000			18.989			-3.798
35704.000			18.988			-3.798
35805.000			18.986			-3.797
35904.000			18.985			-3.797
36003.000			18.984			-3.797
36105.000			18.982			-3.796
36204.000			18.980			-3.796
36304.000			18.979			-3.796
36405.000			18.977			-3.795
36504.000			18.975			-3.795
36604.000			18.975			-3.795
36703.000			18.973			-3.795
36804.000			18.971			-3.794
36905.000			18.970			-3.794
37004.000			18.969			-3.794
37104.000			18.966			-3.793
37205.000			18.965			-3.793
37304.000			18.963			-3.793
37403.000			18.963			-3.793
37505.000			18.962			-3.792
37604.000			18.961			-3.792
37704.000			18.958			-3.792
37805.000			18.957			-3.791
37904.000			18.956			-3.791
38004.000			18.954			-3.791
38104.000			18.952			-3.790
38204.000			18.951			-3.790
38303.000			18.951			-3.790
38405.000			18.949			-3.790
38504.000			18.947			-3.789
38604.000			18.946			-3.789
38705.000			18.945			-3.789
38804.000			18.944			-3.789
38904.000			18.942			-3.788
39004.000			18.941			-3.788
39104.000			18.939			-3.788
39204.000			18.938			-3.788
39305.000			18.937			-3.787
39404.000			18.935			-3.787
39504.000			18.934			-3.787
39605.000			18.933			-3.787
39703.000			18.932			-3.786
39804.000			18.931			-3.786
39905.000			18.928			-3.786
40004.000			18.927			-3.785
40105.000			18.926			-3.785
40204.000			18.925			-3.785
40304.000			18.923			-3.785
40404.000			18.921			-3.784
40504.000			18.921			-3.784
40604.000			18.918			-3.784
40705.000			18.917			-3.783
40804.000			18.916			-3.783
40904.000			18.915			-3.783
41005.000			18.914			-3.783
41103.000			18.912			-3.782
41204.000			18.911			-3.782
41305.000			18.909			-3.782
41404.000			18.909			-3.782
41504.000			18.908			-3.782
41604.000			18.906			-3.781
41704.000			18.904			-3.781
41803.000			18.904			-3.781
41905.000			18.902			-3.780
42004.000			18.901			-3.780
42104.000			18.899			-3.780
42205.000			18.898			-3.780
42303.000			18.897			-3.779
42404.000			18.896			-3.779
42505.000			18.895			-3.779
42604.000			18.893			-3.779
42704.000			18.892			-3.778
42805.000			18.891			-3.778
42904.000			18.889			-3.778
43004.000			18.887			-3.777
43105.000			18.887			-3.777
43203.000			18.887			-3.777
43305.000			18.886			-3.777
43404.000			18.884			-3.777
43504.000			18.882			-3.776
43605.000			18.880			-3.776
43704.000			18.879			-3.776
43804.000			18.878			-3.776
43904.000			18.877			-3.775
44004.000			18.876			-3.775
44104.000			18.875			-3.775
44205.000			18.875			-3.775
44304.000			18.872			-3.774
44404.000			18.872			-3.774
44505.000			18.870			-3.774
44603.000			18.868			-3.774
44704.000			18.867			-3.773
44805.000			18.867			-3.773
44904.000			18.866			-3.773
45004.000			18.864			-3.773
45105.000			18.863			-3.773
45204.000			18.862			-3.772
45303.000			18.860			-3.772
45405.000			18.859			-3.772
45504.000			18.859			-3.772
45604.000			18.858			-3.772
45705.000			18.855			-3.771
45804.000			18.853			-3.771
45904.000			18.854			-3.771
46004.000			18.854			-3.771
46104.000			18.850			-3.770
46204.000			18.849			-3.770
46304.000			18.849			-3.770
46404.000			18.849			-3.770
46505.000			18.846			-3.769
46604.000			18.845			-3.769
46703.000			18.843			-3.769
46805.000			18.843			-3.769
46904.000			18.843			-3.769
47004.000			18.842			-3.768
47105.000			18.840			-3.768
47204.000			18.838			-3.768
47304.000			18.838			-3.768
47404.000			18.836			-3.767
47504.000			18.835			-3.767
47604.000			18.835			-3.767
47705.000			18.834			-3.767
47804.000			18.832			-3.766
47904.000			18.829			-3.766
48005.000			18.829			-3.766
48103.000			18.829			-3.766
48204.000			18.828			-3.766
48305.000			18.827			-3.765
48404.000			18.825			-3.765
48504.000			18.824			-3.765
48605.000			18.823			-3.765
48704.000			18.822			-3.764
48804.000			18.820			-3.764
48905.000			18.819			-3.764
49003.000			18.819			-3.764
49104.000			18.818			-3.764
49205.000			18.817			-3.763
49304.000			18.816			-3.763
49404.000			18.814			-3.763
49504.000			18.814			-3.763
49604.000			18.813			-3.763
49704.000			18.811			-3.762
49804.000			18.810			-3.762
49904.000			18.809			-3.762
50005.000			18.808			-3.762
50104.000			18.806			-3.761
50204.000			18.805			-3.761
50305.000			18.804			-3.761
50403.000			18.804			-3.761
50504.000			18.802			-3.760
50605.000			18.801			-3.760
50704.000			18.802			-3.760
50804.000			18.801			-3.760
50905.000			18.799			-3.760
51004.000			18.797			-3.759
51103.000			18.795			-3.759
51205.000			18.794			-3.759
51304.000			18.793			-3.759
51404.000			18.793			-3.759
51505.000			18.793			-3.759
51604.000			18.791			-3.758
51704.000			18.790			-3.758
51804.000			18.789			-3.758
51904.000			18.789			-3.758
52004.000			18.788			-3.758
52105.000			18.787			-3.757
52204.000			18.785			-3.757
52304.000			18.784			-3.757
52405.000			18.783			-3.757
52503.000			18.782			-3.756
52604.000			18.781			-3.756
52705.000			18.780			-3.756
52804.000			18.779			-3.756
52905.000			18.778			-3.756
53004.000			18.775			-3.755
53104.000			18.775			-3.755
53204.000			18.775			-3.755
53304.000			18.774			-3.755
53404.000			18.773			-3.755
53505.000			18.773			-3.755
53604.000			18.772			-3.754
53704.000			18.772			-3.754
53805.000			18.769			-3.754
53903.000			18.768			-3.754
54004.000			18.767			-3.753
54105.000			18.767			-3.753
54204.000			18.766			-3.753
54304.000			18.765			-3.753
54405.000			18.763			-3.753
54504.000			18.762			-3.752
54603.000			18.761			-3.752
54705.000			18.761			-3.752
54804.000			18.759			-3.752
54904.000			18.758			-3.752
55005.000			18.758			-3.752
55104.000			18.758			-3.752
55204.000			18.754			-3.751
55304.000			18.754			-3.751
55404.000			18.753			-3.751
55504.000			18.752			-3.750
55605.000			18.751			-3.750
55704.000			18.750			-3.750
55804.000			18.749			-3.750
55905.000			18.749			-3.750
56003.000			18.748			-3.750
56105.000			18.747			-3.749
56204.000			18.746			-3.749
56304.000			18.745			-3.749
56405.000			18.745			-3.749
56504.000			18.744			-3.749
56604.000			18.743			-3.749
56704.000			18.742			-3.748
56804.000			18.742			-3.748
56904.000			18.740			-3.748
57005.000			18.739			-3.748
57104.000			18.738			-3.748
57204.000			18.737			-3.747
57305.000			18.736			-3.747
57403.000			18.735			-3.747
57504.000			18.735			-3.747
57605.000			18.733			-3.747
57704.000			18.732			-3.746
57804.000			18.732			-3.746
57905.000			18.731			-3.746
58004.000			18.730			-3.746
58103.000			18.728			-3.746
58205.000			18.728			-3.746
58303.000			18.727			-3.745
58404.000			18.726			-3.745
58505.000			18.725			-3.745
58604.000			18.723			-3.745
58704.000			18.722			-3.744
58805.000			18.722			-3.744
58904.000			18.720			-3.744
59003.000			18.720			-3.744
59105.000			18.720			-3.744
59204.000			18.719			-3.744
59305.000			18.718			-3.744
59404.000			18.717			-3.743
59504.000			18.716			-3.743
59605.000			18.716			-3.743
59703.000			18.715			-3.743
59804.000			18.715			-3.743
59905.000			18.714			-3.743
60004.000			18.712			-3.742
60104.000			18.711			-3.742
60205.000			18.710			-3.742
60304.000			18.709			-3.742
60403.000			18.708			-3.742
60505.000			18.707			-3.741
60604.000			18.706			-3.741
60704.000			18.706			-3.741
60805.000			18.706			-3.741
60904.000			18.705			-3.741
61004.000			18.704			-3.741
61104.000			18.701			-3.740
61204.000			18.700			-3.740
61304.000			18.700			-3.740
61405.000			18.699			-3.740
61504.000			18.699			-3.740
61604.000			18.698			-3.740
61705.000			18.697			-3.739
61803.000			18.697			-3.739
61904.000			18.696			-3.739
62005.000			18.695			-3.739
62104.000			18.694			-3.739
62204.000			18.693			-3.739
62304.000			18.692			-3.738
62404.000			18.691			-3.738
62504.000			18.691			-3.738
62604.000			18.690			-3.738
62704.000			18.689			-3.738
62805.000			18.688			-3.738
62904.000			18.687			-3.737
63004.000			18.686			-3.737
63105.000			18.686			-3.737
63203.000			18.686			-3.737
63304.000			18.682			-3.736
63405.000			18.683			-3.737
63504.000			18.683			-3.737
63604.000			18.681			-3.736
63705.000			18.680			-3.736
63804.000			18.681			-3.736
63903.000			18.679			-3.736
64005.000			18.678			-3.736
64104.000			18.677			-3.735
64204.000			18.676			-3.735
64305.000			18.675			-3.735
64404.000			18.674			-3.735
64504.000			18.672			-3.734
64604.000			18.672			-3.734
64704.000			18.672			-3.734
64804.000			18.672			-3.734
64905.000			18.671			-3.734
65004.000			18.670			-3.734
65104.000			18.669			-3.734
65205.000			18.668			-3.734
65303.000			18.667			-3.733
65404.000			18.666			-3.733
65505.000			18.666			-3.733
65604.000			18.665			-3.733
65705.000			18.663			-3.733
65804.000			18.664			-3.733
65904.000			18.662			-3.732
66004.000			18.661			-3.732
66104.000			18.662			-3.732
66203.000			18.659			-3.732
66305.000			18.659			-3.732
66404.000			18.659			-3.732
66504.000			18.658			-3.732
66605.000			18.657			-3.731
66704.000			18.658			-3.732
66804.000			18.657			-3.731
66904.000			18.654			-3.731
67004.000			18.653			-3.731
67104.000			18.654			-3.731
67205.000			18.652			-3.730
67304.000			18.652			-3.730
67404.000			18.651			-3.730
67505.000			18.650			-3.730
67603.000			18.649			-3.730
67704.000			18.648			-3.730
67805.000			18.647			-3.729
67904.000			18.647			-3.729
68004.000			18.646			-3.729
68105.000			18.645			-3.729
68204.000			18.645			-3.729
68303.000			18.643			-3.729
68405.000			18.642			-3.728
68504.000			18.642			-3.728
68604.000			18.641			-3.728
68705.000			18.640			-3.728
68804.000			18.640			-3.728
68905.000			18.639			-3.728
69003.000			18.639			-3.728
69104.000			18.638			-3.728
69205.000			18.637			-3.727
69304.000			18.637			-3.727
69404.000			18.636			-3.727
69505.000			18.635			-3.727
69604.000			18.634			-3.727
69703.000			18.633			-3.727
69805.000			18.632			-3.726
69903.000			18.630			-3.726
70004.000			18.630			-3.726
70105.000			18.630			-3.726
70204.000			18.630			-3.726
70304.000			18.628			-3.726
70404.000			18.627			-3.725
70504.000			18.626			-3.725
70603.000			18.626			-3.725
70705.000			18.626			-3.725
70804.000			18.625			-3.725
70904.000			18.623			-3.725
71005.000			18.624			-3.725
71103.000			18.623			-3.725
71204.000			18.622			-3.724
71305.000			18.620			-3.724
71404.000			18.620			-3.724
71504.000			18.619			-3.724
71605.000			18.617			-3.723
71704.000			18.617			-3.723
71803.000			18.617			-3.723
71905.000			18.616			-3.723
72004.000			18.615			-3.723
72105.000			18.614			-3.723
72204.000			18.613			-3.723
72304.000			18.612			-3.722
72405.000			18.613			-3.723
72503.000			18.613			-3.723
72604.000			18.612			-3.722
72705.000			18.610			-3.722
72804.000			18.609			-3.722
72904.000			18.609			-3.722
73005.000			18.608			-3.722
73104.000			18.607			-3.721
73203.000			18.607			-3.721
73305.000			18.607			-3.721
73404.000			18.605			-3.721
73504.000			18.604			-3.721
73605.000			18.604			-3.721
73704.000			18.604			-3.721
73804.000			18.603			-3.721
73904.000			18.601			-3.720
74004.000			18.600			-3.720
74103.000			18.601			-3.720
74205.000			18.599			-3.720
74304.000			18.598			-3.720
74404.000			18.598			-3.720
74505.000			18.598			-3.720
74604.000			18.597			-3.719
74704.000			18.596			-3.719
74804.000			18.596			-3.719
74904.000			18.595			-3.719
75004.000			18.594			-3.719
75104.000			18.594			-3.719
75204.000			18.593			-3.719
75305.000			18.593			-3.719
75404.000			18.592			-3.718
75503.000			18.590			-3.718
75605.000			18.590			-3.718
75704.000			18.589			-3.718
75804.000			18.588			-3.718
75905.000			18.588			-3.718
76004.000			18.588			-3.718
76104.000			18.586			-3.717
76204.000			18.584			-3.717
76304.000			18.584			-3.717
76404.000			18.584			-3.717
76505.000			18.583			-3.717
76604.000			18.583			-3.717
76704.000			18.582			-3.716
76805.000			18.581			-3.716
76904.000			18.580			-3.716
77004.000			18.581			-3.716
77104.000			18.578			-3.716
77204.000			18.579			-3.716
77304.000			18.579			-3.716
77405.000			18.578			-3.716
77504.000			18.577			-3.715
77604.000			18.577			-3.715
77705.000			18.575			-3.715
77803.000			18.574			-3.715
77904.000			18.574			-3.715
78005.000			18.573			-3.715
78104.000			18.573			-3.715
78204.000			18.572			-3.714
78304.000			18.572			-3.714
78404.000			18.572			-3.714
78504.000			18.571			-3.714
78604.000			18.569			-3.714
78704.000			18.569			-3.714
78805.000			18.569			-3.714
78904.000			18.567			-3.713
79004.000			18.567			-3.713
79105.000			18.567			-3.713
79203.000			18.566			-3.713
79304.000			18.564			-3.713
79404.000			18.564			-3.713
79504.000			18.564			-3.713
79604.000			18.562			-3.712
79705.000			18.561			-3.712
79804.000			18.561			-3.712
79904.000			18.562			-3.712
80005.000			18.560			-3.712
80103.000			18.560			-3.712
80204.000			18.559			-3.712
80305.000			18.558			-3.712
80404.000			18.557			-3.711
80504.000			18.557			-3.711
80605.000			18.557			-3.711
80704.000			18.555			-3.711
80803.000			18.555			-3.711
80905.000			18.554			-3.711
81004.000			18.552			-3.710
81104.000			18.553			-3.711
81205.000			18.553			-3.711
81304.000			18.552			-3.710
81404.000			18.552			-3.710
81503.000			18.549			-3.710
81604.000			18.549			-3.710
81705.000			18.548			-3.710
81804.000			18.548			-3.710
81904.000			18.547			-3.709
82005.000			18.547			-3.709
82104.000			18.547			-3.709
82203.000			18.545			-3.709
82305.000			18.545			-3.709
82404.000			18.545			-3.709
82504.000			18.544			-3.709
82605.000			18.543			-3.709
82704.000			18.542			-3.708
82804.000			18.542			-3.708
82904.000			18.540			-3.708
83004.000			18.540			-3.708
83104.000			18.540			-3.708
83205.000			18.539			-3.708
83304.000			18.538			-3.708
83404.000			18.538			-3.708
83505.000			18.537			-3.707
83603.000			18.536			-3.707
83704.000			18.535			-3.707
83805.000			18.535			-3.707
83904.000			18.535			-3.707
84004.000			18.535			-3.707
84105.000			18.534			-3.707
84204.000			18.533			-3.707
84303.000			18.533			-3.707
84405.000			18.531			-3.706
84504.000			18.531			-3.706
84604.000			18.530			-3.706
84705.000			18.529			-3.706
84804.000			18.529			-3.706
84905.000			18.529			-3.706
85003.000			18.528			-3.706
85104.000			18.526			-3.705
85205.000			18.527			-3.705
85304.000			18.525			-3.705
85404.000			18.524			-3.705
85505.000			18.523			-3.705
85604.000			18.524			-3.705
85703.000			18.523			-3.705
85805.000			18.522			-3.704
85904.000			18.521			-3.704
86004.000			18.522			-3.704
86105.000			18.521			-3.704
86204.000			18.521			-3.704
86304.000			18.520			-3.704
86404.000			18.520			-3.704
86504.000			18.519			-3.704
86604.000			18.518			-3.704
86705.000			18.517			-3.703
86804.000			18.517			-3.703
86904.000			18.516			-3.703
87005.000			18.516			-3.703
87103.000			18.516			-3.703
87204.000			18.515			-3.703
87305.000			18.513			-3.703
87404.000			18.512			-3.702
87504.000			18.512			-3.702
87605.000			18.511			-3.702
87704.000			18.511			-3.702
87803.000			18.510			-3.702
87905.000			18.510			-3.702
88004.000			18.509			-3.702
88105.000			18.510			-3.702
88204.000			18.509			-3.702
88304.000			18.507			-3.701
88405.000			18.506			-3.701
88503.000			18.506			-3.701
88604.000			18.507			-3.701
88704.000			18.505			-3.701
88804.000			18.504			-3.701
88904.000			18.504			-3.701
89005.000			18.503			-3.701
89104.000			18.502			-3.700
89204.000			18.503			-3.701
89305.000			18.502			-3.700
89403.000			18.501			-3.700
89504.000			18.501			-3.700
89605.000			18.501			-3.700
89704.000			18.500			-3.700
89804.000			18.499			-3.700
89905.000			18.498			-3.700
90004.000			18.498			-3.700
90103.000			18.498			-3.700
90205.000			18.496			-3.699
90304.000			18.495			-3.699
90404.000			18.495			-3.699
90505.000			18.495			-3.699
90604.000			18.494			-3.699
90704.000			18.494			-3.699
90804.000			18.492			-3.698
90904.000			18.492			-3.698
91004.000			18.492			-3.698
91104.000			18.491			-3.698
91204.000			18.490			-3.698
91305.000			18.491			-3.698
91404.000			18.490			-3.698
91503.000			18.489			-3.698
91605.000			18.488			-3.698
91704.000			18.487			-3.697
91804.000			18.486			-3.697
91905.000			18.487			-3.697
92004.000			18.486			-3.697
92104.000			18.485			-3.697
92204.000			18.484			-3.697
92304.000			18.484			-3.697
92403.000			18.484			-3.697
92505.000			18.483			-3.697
92604.000			18.481			-3.696
92704.000			18.481			-3.696
92805.000			18.481			-3.696
92904.000			18.480			-3.696
93004.000			18.481			-3.696
93104.000			18.479			-3.696
93204.000			18.478			-3.696
93304.000			18.477			-3.695
93405.000			18.478			-3.696
93504.000			18.477			-3.695
93604.000			18.477			-3.695
93705.000			18.476			-3.695
93803.000			18.475			-3.695
93904.000			18.475			-3.695
94005.000			18.474			-3.695
94104.000			18.474			-3.695
94204.000			18.473			-3.695
94304.000			18.472			-3.694
94404.000			18.472			-3.694
94504.000			18.473			-3.695
94604.000			18.472			-3.694
94704.000			18.472			-3.694
94805.000			18.470			-3.694
94904.000			18.469			-3.694
95004.000			18.469			-3.694
95105.000			18.468			-3.694
95203.000			18.467			-3.693
95304.000			18.468			-3.694
95405.000			18.467			-3.693
95504.000			18.466			-3.693
95604.000			18.466			-3.693
95705.000			18.466			-3.693
95804.000			18.465			-3.693
95904.000			18.464			-3.693
96005.000			18.463			-3.693
96103.000			18.463			-3.693
96204.000			18.462			-3.692
96305.000			18.461			-3.692
96404.000			18.461			-3.692
96504.000			18.461			-3.692
96605.000			18.460			-3.692
96704.000			18.459			-3.692
96803.000			18.459			-3.692
96905.000			18.459			-3.692
97004.000			18.458			-3.692
97104.000			18.458			-3.692
97205.000			18.457			-3.691
97304.000			18.457			-3.691
97404.000			18.458			-3.692
97503.000			18.455			-3.691
97604.000			18.455			-3.691
97705.000			18.454			-3.691
97804.000			18.454			-3.691
97904.000			18.455			-3.691
98005.000			18.453			-3.691
98104.000			18.453			-3.691
98203.000			18.453			-3.691
98305.000			18.451			-3.690
98404.000			18.451			-3.690
98504.000			18.451			-3.690
98605.000			18.450			-3.690
98704.000			18.450			-3.690
98804.000			18.450			-3.690
98904.000			18.449			-3.690
99004.000			18.448			-3.690
99103.000			18.448			-3.690
99205.000			18.448			-3.690
99304.000			18.448			-3.690
99404.000			18.447			-3.689
99505.000			18.446			-3.689
99604.000			18.446			-3.689
99704.000			18.445			-3.689
99804.000			18.443			-3.689
99904.000			18.443			-3.689
100004.000			18.442			-3.688
100105.000			18.443			-3.689
100204.000			18.442			-3.688
100304.000			18.442			-3.688
100405.000			18.442			-3.688
100503.000			18.441			-3.688
100604.000			18.440			-3.688
100705.000			18.440			-3.688
100804.000			18.440			-3.688
100905.000			18.439			-3.688
101004.000			18.438			-3.688
101104.000			18.438			-3.688
101204.000			18.438			-3.688
101304.000			18.437			-3.687
101404.000			18.437			-3.687
101505.000			18.436			-3.687
101604.000			18.436			-3.687
101704.000			18.435			-3.687
101805.000			18.433			-3.687
101903.000			18.433			-3.687
102004.000			18.433			-3.687
102105.000			18.434			-3.687
102204.000			18.432			-3.686
102304.000			18.431			-3.686
102405.000			18.431			-3.686
102504.000			18.431			-3.686
102603.000			18.429			-3.686
102705.000			18.428			-3.686
102804.000			18.428			-3.686
102904.000			18.427			-3.685
103005.000			18.427			-3.685
103104.000			18.428			-3.686
103204.000			18.427			-3.685
103305.000			18.426			-3.685
103404.000			18.425			-3.685
103503.000			18.424			-3.685
103605.000			18.424			-3.685
103704.000			18.423			-3.685
103804.000			18.422			-3.684
103905.000			18.421			-3.684
104004.000			18.422			-3.684
104105.000			18.421			-3.684
104203.000			18.420			-3.684
104304.000			18.420			-3.684
104405.000			18.419			-3.684
104504.000			18.419			-3.684
104604.000			18.418			-3.684
104705.000			18.418			-3.684
104804.000			18.418			-3.684
104903.000			18.418			-3.684
105005.000			18.417			-3.683
105104.000			18.415			-3.683
105204.000			18.416			-3.683
105305.000			18.416			-3.683
105404.000			18.415			-3.683
105504.000			18.414			-3.683
105604.000			18.413			-3.683
105704.000			18.413			-3.683
105804.000			18.413			-3.683
105905.000			18.413			-3.683
106004.000			18.412			-3.682
106104.000			18.411			-3.682
106205.000			18.411			-3.682
106303.000			18.410			-3.682
106404.000			18.409			-3.682
106505.000			18.408			-3.682
106604.000			18.408			-3.682
106704.000			18.408			-3.682
106805.000			18.408			-3.682
106904.000			18.407			-3.681
107003.000			18.407			-3.681
107105.000			18.406			-3.681
107204.000			18.406			-3.681
107305.000			18.406			-3.681
107404.000			18.405			-3.681
107504.000			18.404			-3.681
107605.000			18.404			-3.681
107704.000			18.404			-3.681
107804.000			18.404			-3.681
107904.000			18.404			-3.681
108004.000			18.404			-3.681
108104.000			18.404			-3.681
108205.000			18.403			-3.681
108304.000			18.403			-3.681
108404.000			18.402			-3.680
108505.000			18.402			-3.680
108603.000			18.403			-3.681
108704.000			18.401			-3.680
108805.000			18.400			-3.680
108904.000			18.402			-3.680
109004.000			18.401			-3.680
109105.000			18.399			-3.680
109204.000			18.399			-3.680
109303.000			18.398			-3.680
109405.000			18.399			-3.680
109504.000			18.398			-3.680
109604.000			18.397			-3.679
109705.000			18.397			-3.679
109804.000			18.397			-3.679
109904.000			18.398			-3.680
110005.000			18.397			-3.679
110104.000			18.395			-3.679
110203.000			18.396			-3.679
110305.000			18.395			-3.679
110404.000			18.394			-3.679
110505.000			18.394			-3.679
110604.000			18.392			-3.678
110704.000			18.393			-3.679
110805.000			18.392			-3.678
110903.000			18.392			-3.678
111004.000			18.391			-3.678
111105.000			18.391			-3.678
111204.000			18.391			-3.678
111304.000			18.391			-3.678
111405.000			18.391			-3.678
111504.000			18.390			-3.678
111603.000			18.390			-3.678
111705.000			18.389			-3.678
111804.000			18.389			-3.678
111904.000			18.389			-3.678
112005.000			18.389			-3.678
112104.000			18.388			-3.678
112204.000			18.388			-3.678
112304.000			18.387			-3.677
112404.000			18.386			-3.677
112504.000			18.385			-3.677
112605.000			18.386			-3.677
112704.000			18.386			-3.677
112804.000			18.386			-3.677
112905.000			18.386			-3.677
113004.000			18.384			-3.677
113104.000			18.385			-3.677
113204.000			18.384			-3.677
113304.000			18.383			-3.677
113404.000			18.383			-3.677
113504.000			18.380			-3.676
113604.000			18.380			-3.676
113705.000			18.380			-3.676
113804.000			18.381			-3.676
113903.000			18.380			-3.676
114005.000			18.380			-3.676
114104.000			18.379			-3.676
114204.000			18.378			-3.676
114305.000			18.378			-3.676
114404.000			18.378			-3.676
114504.000			18.377			-3.675
114604.000			18.376			-3.675
114704.000			18.375			-3.675
114804.000			18.375			-3.675
114905.000			18.374			-3.675
115004.000			18.374			-3.675
115104.000			18.374			-3.675
115205.000			18.374			-3.675
115303.000			18.373			-3.675
115404.000			18.373			-3.675
115504.000			18.372			-3.674
115604.000			18.372			-3.674
115704.000			18.372			-3.674
115805.000			18.371			-3.674
115904.000			18.370			-3.674
116004.000			18.370			-3.674
116105.000			18.370			-3.674
116203.000			18.369			-3.674
116304.000			18.369			-3.674
116405.000			18.367			-3.673
116504.000			18.368			-3.674
116604.000			18.367			-3.673
116704.000			18.366			-3.673
116804.000			18.367			-3.673
116904.000			18.368			-3.674
117004.000			18.367			-3.673
117104.000			18.365			-3.673
117205.000			18.364			-3.673
117304.000			18.363			-3.673
117404.000			18.362			-3.672
117505.000			18.362			-3.672
117604.000			18.363			-3.673
117704.000			18.362			-3.672
117804.000			18.361			-3.672
117904.000			18.360			-3.672
118004.000			18.360			-3.672
118105.000			18.359			-3.672
118204.000			18.359			-3.672
118304.000			18.359			-3.672
118405.000			18.357			-3.671
118503.000			18.358			-3.672
118604.000			18.356			-3.671
118705.000			18.357			-3.671
118804.000			18.357			-3.671
118904.000			18.356			-3.671
119005.000			18.355			-3.671
119104.000			18.354			-3.671
119203.000			18.354			-3.671
119305.000			18.353			-3.671
119404.000			18.353			-3.671
119504.000			18.353			-3.671
119605.000			18.353			-3.671
119704.000			18.353			-3.671
119804.000			18.351			-3.670
119904.000			18.352			-3.670
120004.000			18.352			-3.670
120104.000			18.349			-3.670
120204.000			18.349			-3.670
120304.000			18.348			-3.670
120405.000			18.348			-3.670
120504.000			18.348			-3.670
120604.000			18.348			-3.670
120705.000			18.347			-3.669
120803.000			18.345			-3.669
120904.000			18.345			-3.669
121005.000			18.345			-3.669
121104.000			18.345			-3.669
121204.000			18.344			-3.669
121305.000			18.343			-3.669
121404.000			18.343			-3.669
121503.000			18.342			-3.668
121605.000			18.342			-3.668
121704.000			18.342			-3.668
121804.000			18.341			-3.668
121905.000			18.341			-3.668
122004.000			18.341			-3.668
122104.000			18.341			-3.668
122204.000			18.340			-3.668
122304.000			18.339			-3.668
122403.000			18.338			-3.668
122505.000			18.338			-3.668
122604.000			18.338			-3.668
122704.000			18.338			-3.668
122805.000			18.337			-3.667
122904.000			18.337			-3.667
123004.000			18.335			-3.667
123103.000			18.335			-3.667
123204.000			18.334			-3.667
123305.000			18.334			-3.667
123404.000			18.334			-3.667
123504.000			18.333			-3.667
123605.000			18.333			-3.667
123704.000			18.332			-3.666
123803.000			18.332			-3.666
123905.000			18.332			-3.666
124004.000			18.331			-3.666
124104.000			18.330			-3.666
124205.000			18.330			-3.666
124304.000			18.330			-3.666
124404.000			18.329			-3.666
124504.000			18.329			-3.666
124604.000			18.328			-3.666
124704.000			18.328			-3.666
124805.000			18.329			-3.666
124904.000			18.327			-3.665
125004.000			18.327			-3.665
125105.000			18.327			-3.665
125204.000			18.326			-3.665
125304.000			18.324			-3.665
125404.000			18.324			-3.665
125504.000			18.324			-3.665
125604.000			18.324			-3.665
125705.000			18.323			-3.665
125804.000			18.323			-3.665
125904.000			18.322			-3.664
126005.000			18.322			-3.664
126103.000			18.321			-3.664
126204.000			18.321			-3.664
126305.000			18.319			-3.664
126404.000			18.319			-3.664
126505.000			18.320			-3.664
126604.000			18.319			-3.664
126704.000			18.318			-3.664
126804.000			18.318			-3.664
126904.000			18.318			-3.664
127004.000			18.318			-3.664
127105.000			18.318			-3.664
127204.000			18.316			-3.663
127304.000			18.316			-3.663
127405.000			18.316			-3.663
127503.000			18.314			-3.663
127604.000			18.314			-3.663
127705.000			18.314			-3.663
127804.000			18.315			-3.663
127904.000			18.314			-3.663
128005.000			18.313			-3.663
128104.000			18.313			-3.663
128203.000			18.312			-3.662
128305.000			18.312			-3.662
128403.000			18.312			-3.662
128504.000			18.311			-3.662
128605.000			18.312			-3.662
128704.000			18.311			-3.662
128804.000			18.310			-3.662
128905.000			18.310			-3.662
129004.000			18.310			-3.662
129103.000			18.308			-3.662
129205.000			18.308			-3.662
129304.000			18.309			-3.662
129404.000			18.308			-3.662
129505.000			18.307			-3.661
129604.000			18.307			-3.661
129705.000			18.306			-3.661
129803.000			18.306			-3.661
129904.000			18.305			-3.661
130005.000			18.305			-3.661
130104.000			18.304			-3.661
130204.000			18.305			-3.661
130305.000			18.304			-3.661
130404.000			18.304			-3.661
130503.000			18.303			-3.661
130605.000			18.302			-3.660
130704.000			18.302			-3.660
130804.000			18.302			-3.660
130905.000			18.301			-3.660
131004.000			18.300			-3.660
131104.000			18.300			-3.660
131204.000			18.300			-3.660
131304.000			18.300			-3.660
131403.000			18.299			-3.660
131505.000			18.300			-3.660
131604.000			18.299			-3.660
131704.000			18.297			-3.659
131805.000			18.298			-3.660
131904.000			18.297			-3.659
132004.000			18.297			-3.659
132104.000			18.296			-3.659
132204.000			18.296			-3.659
132303.000			18.296			-3.659
132405.000			18.295			-3.659
132504.000			18.297			-3.659
132604.000			18.296			-3.659
132705.000			18.295			-3.659
132804.000			18.294			-3.659
132905.000			18.294			-3.659
133004.000			18.294			-3.659
133104.000			18.293			-3.659
133204.000			18.292			-3.658
133304.000			18.292			-3.658
133404.000			18.292			-3.658
133505.000			18.291			-3.658
133604.000			18.291			-3.658
133704.000			18.290			-3.658
133805.000			18.291			-3.658
133904.000			18.289			-3.658
134004.000			18.289			-3.658
134104.000			18.288			-3.658
134204.000			18.288			-3.658
134304.000			18.288			-3.658
134405.000			18.288			-3.658
134504.000			18.286			-3.657
134604.000			18.287			-3.657
134705.000			18.286			-3.657
134804.000			18.286			-3.657
134904.000			18.286			-3.657
135004.000			18.287			-3.657
135104.000			18.286			-3.657
135204.000			18.286			-3.657
135305.000			18.286			-3.657
135404.000			18.284			-3.657
135504.000			18.283			-3.657
135605.000			18.283			-3.657
135704.000			18.283			-3.657
135804.000			18.283			-3.657
135903.000			18.282			-3.656
136004.000			18.283			-3.657
136105.000			18.282			-3.656
136204.000			18.281			-3.656
136304.000			18.280			-3.656
136405.000			18.280			-3.656
136504.000			18.280			-3.656
136604.000			18.280			-3.656
136705.000			18.279			-3.656
136803.000			18.279			-3.656
136904.000			18.278			-3.656
137005.000			18.278			-3.656
137104.000			18.277			-3.655
137204.000			18.275			-3.655
137305.000			18.276			-3.655
137404.000			18.276			-3.655
137504.000			18.276			-3.655
137605.000			18.275			-3.655
137703.000			18.275			-3.655
137804.000			18.275			-3.655
137904.000			18.274			-3.655
138004.000			18.273			-3.655
138104.000			18.273			-3.655
138205.000			18.273			-3.655
138304.000			18.273			-3.655
138404.000			18.272			-3.654
138505.000			18.271			-3.654
138604.000			18.271			-3.654
138704.000			18.271			-3.654
138804.000			18.271			-3.654
138904.000			18.270			-3.654
139004.000			18.269			-3.654
139104.000			18.269			-3.654
139204.000			18.269			-3.654
139305.000			18.269			-3.654
139404.000			18.268			-3.654
139504.000			18.267			-3.653
139605.000			18.267			-3.653
139703.000			18.267			-3.653
139804.000			18.267			-3.653
139905.000			18.266			-3.653
140004.000			18.265			-3.653
140104.000			18.266			-3.653
140205.000			18.266			-3.653
140304.000			18.265			-3.653
140404.000			18.264			-3.653
140505.000			18.263			-3.653
140603.000			18.263			-3.653
140704.000			18.263			-3.653
140805.000			18.263			-3.653
140904.000			18.263			-3.653
141004.000			18.262			-3.652
141105.000			18.261			-3.652
141204.000			18.261			-3.652
141303.000			18.261			-3.652
141405.000			18.261			-3.652
141503.000			18.260			-3.652
141604.000			18.260			-3.652
141705.000			18.260			-3.652
141804.000			18.260			-3.652
141904.000			18.258			-3.652
142005.000			18.258			-3.652
142104.000			18.258			-3.652
142203.000			18.258			-3.652
142305.000			18.257			-3.651
142404.000			18.256			-3.651
142505.000			18.256			-3.651
142604.000			18.256			-3.651
142704.000			18.255			-3.651
142805.000			18.255			-3.651
142904.000			18.255			-3.651
143004.000			18.255			-3.651
143104.000			18.255			-3.651
143204.000			18.254			-3.651
143303.000			18.253			-3.651
143405.000			18.252			-3.650
143504.000			18.253			-3.651
143604.000			18.252			-3.650
143705.000			18.253			-3.651
143804.000			18.253			-3.651
143904.000			18.252			-3.650
144004.000			18.251			-3.650
144104.000			18.250			-3.650
144203.000			18.249			-3.650
144305.000			18.249			-3.650
144404.000			18.249			-3.650
144504.000			18.249			-3.650
144605.000			18.249			-3.650
144704.000			18.249			-3.650
144804.000			18.248			-3.650
144904.000			18.247			-3.649
145004.000			18.247			-3.649
145103.000			18.247			-3.649
145205.000			18.246			-3.649
145304.000			18.245			-3.649
145404.000			18.246			-3.649
145505.000			18.246			-3.649
145604.000			18.245			-3.649
145705.000			18.245			-3.649
145803.000			18.244			-3.649
145904.000			18.244			-3.649
146004.000			18.244			-3.649
146104.000			18.244			-3.649
146204.000			18.243			-3.649
146305.000			18.243			-3.649
146404.000			18.242			-3.648
146504.000			18.242			-3.648
146605.000			18.241			-3.648
146703.000			18.240			-3.648
146804.000			18.240			-3.648
146905.000			18.241			-3.648
147004.000			18.240			-3.648
147104.000			18.240			-3.648
147205.000			18.239			-3.648
147304.000			18.239			-3.648
147404.000			18.238			-3.648
147505.000			18.238			-3.648
147603.000			18.238			-3.648
147704.000			18.237			-3.647
147805.000			18.236			-3.647
147904.000			18.236			-3.647
148004.000			18.236			-3.647
148105.000			18.235			-3.647
148204.000			18.236			-3.647
148304.000			18.236			-3.647
148405.000			18.235			-3.647
148503.000			18.235			-3.647
148604.000			18.235			-3.647
148705.000			18.234			-3.647
148804.000			18.234			-3.647
148905.000			18.232			-3.646
149004.000			18.232			-3.646
149104.000			18.232			-3.646
149205.000			18.232			-3.646
149304.000			18.232			-3.646
149403.000			18.231			-3.646
149505.000			18.231			-3.646
149604.000			18.231			-3.646
149704.000			18.231			-3.646
149805.000			18.231			-3.646
149904.000			18.231			-3.646
150004.000			18.228			-3.646
150105.000			18.228			-3.646
150204.000			18.229			-3.646
150303.000			18.228			-3.646
150405.000			18.229			-3.646
150504.000			18.228			-3.646
150604.000			18.228			-3.646
150705.000			18.227			-3.645
150804.000			18.227			-3.645
150904.000			18.226			-3.645
151005.000			18.227			-3.645
151104.000			18.227			-3.645
151203.000			18.226			-3.645
151305.000			18.225			-3.645
151404.000			18.225			-3.645
151504.000			18.225			-3.645
151605.000			18.224			-3.645
151704.000			18.223			-3.645
151804.000			18.222			-3.644
151904.000			18.222			-3.644
152004.000			18.222			-3.644
152104.000			18.222			-3.644
152204.000			18.222			-3.644
152304.000			18.221			-3.644
152405.000			18.221			-3.644
152504.000			18.221			-3.644
152604.000			18.220			-3.644
152705.000			18.219			-3.644
152804.000			18.219			-3.644
152904.000			18.218			-3.644
153004.000			18.219			-3.644
153104.000			18.219			-3.644
153204.000			18.219			-3.644
153305.000			18.219			-3.644
153404.000			18.218			-3.644
153504.000			18.218			-3.644
153605.000			18.217			-3.643
153703.000			18.215			-3.643
153804.000			18.216			-3.643
153904.000			18.218			-3.644
154004.000			18.216			-3.643
154104.000			18.215			-3.643
154205.000			18.215			-3.643
154304.000			18.214			-3.643
154404.000			18.215			-3.643
154505.000			18.214			-3.643
154603.000			18.213			-3.643
154704.000			18.212			-3.642
154804.000			18.212			-3.642
154904.000			18.212			-3.642
155004.000			18.213			-3.643
155104.000			18.213			-3.643
155204.000			18.212			-3.642
155305.000			18.212			-3.642
155404.000			18.211			-3.642
155503.000			18.210			-3.642
155605.000			18.210			-3.642
155704.000			18.209			-3.642
155804.000			18.209			-3.642
155905.000			18.209			-3.642
156004.000			18.208			-3.642
156104.000			18.208			-3.642
156205.000			18.207			-3.641
156304.000			18.208			-3.642
156403.000			18.208			-3.642
156505.000			18.207			-3.641
156604.000			18.206			-3.641
156704.000			18.206			-3.641
156805.000			18.205			-3.641
156904.000			18.205			-3.641
157004.000			18.205			-3.641
157105.000			18.205			-3.641
157204.000			18.205			-3.641
157303.000			18.204			-3.641
157405.000			18.203			-3.641
157504.000			18.203			-3.641
157604.000			18.202			-3.640
157705.000			18.203			-3.641
157804.000			18.202			-3.640
157904.000			18.202			-3.640
158005.000			18.201			-3.640
158104.000			18.201			-3.640
158203.000			18.201			-3.640
158305.000			18.200			-3.640
158404.000			18.200			-3.640
158505.000			18.200			-3.640
158604.000			18.200			-3.640
158704.000			18.199			-3.640
158805.000			18.198			-3.640
158904.000			18.199			-3.640
159004.000			18.199			-3.640
159104.000			18.199			-3.640
159204.000			18.198			-3.640
159303.000			18.198			-3.640
159405.000			18.198			-3.640
159504.000			18.197			-3.639
159604.000			18.197			-3.639
159705.000			18.196			-3.639
159804.000			18.195			-3.639
159904.000			18.195			-3.639
160005.000			18.195			-3.639
160104.000			18.195			-3.639
160203.000			18.193			-3.639
160305.000			18.193			-3.639
160404.000			18.193			-3.639
160504.000			18.193			-3.639
160605.000			18.193			-3.639
160704.000			18.194			-3.639
160804.000			18.192			-3.638
160905.000			18.192			-3.638
161004.000			18.191			-3.638
161103.000			18.191			-3.638
161205.000			18.191			-3.638
161304.000			18.190			-3.638
161404.000			18.190			-3.638
161505.000			18.191			-3.638
161604.000			18.190			-3.638
161705.000			18.190			-3.638
161804.000			18.189			-3.638
161904.000			18.188			-3.638
162004.000			18.189			-3.638
162104.000			18.189			-3.638
162204.000			18.188			-3.638
162305.000			18.186			-3.637
162404.000			18.187			-3.637
162504.000			18.186			-3.637
162605.000			18.186			-3.637
162704.000			18.186			-3.637
162804.000			18.187			-3.637
162904.000			18.185			-3.637
163004.000			18.185			-3.637
163104.000			18.185			-3.637
163205.000			18.184			-3.637
163304.000			18.184			-3.637
163404.000			18.184			-3.637
163505.000			18.184			-3.637
163604.000			18.184			-3.637
163704.000			18.183			-3.637
163804.000			18.183			-3.637
163904.000			18.183			-3.637
164004.000			18.182			-3.636
164105.000			18.181			-3.636
164204.000			18.181			-3.636
164304.000			18.182			-3.636
164405.000			18.181			-3.636
164504.000			18.181			-3.636
164604.000			18.180			-3.636
164703.000			18.180			-3.636
164804.000			18.180			-3.636
164905.000			18.179			-3.636
165004.000			18.180			-3.636
165104.000			18.179			-3.636
165205.000			18.177			-3.635
165304.000			18.178			-3.636
165404.000			18.177			-3.635
165505.000			18.177			-3.635
165603.000			18.177			-3.635
165704.000			18.177			-3.635
165804.000			18.177			-3.635
165904.000			18.176			-3.635
166004.000			18.176			-3.635
166105.000			18.176			-3.635
166204.000			18.177			-3.635
166304.000			18.176			-3.635
166405.000			18.175			-3.635
166504.000			18.175			-3.635
166604.000			18.174			-3.635
166704.000			18.174			-3.635
166804.000			18.175			-3.635
166904.000			18.173			-3.635
167005.000			18.174			-3.635
167104.000			18.171			-3.634
167204.000			18.171			-3.634
167305.000			18.172			-3.634
167404.000			18.172			-3.634
167504.000			18.171			-3.634
167604.000			18.170			-3.634
167704.000			18.171			-3.634
167803.000			18.171			-3.634
167905.000			18.171			-3.634
168004.000			18.170			-3.634
168105.000			18.169			-3.634
168204.000			18.169			-3.634
168304.000			18.170			-3.634
168405.000			18.168			-3.634
168504.000			18.169			-3.634
168604.000			18.168			-3.634
168704.000			18.168			-3.634
168804.000			18.168			-3.634
168904.000			18.167			-3.633
169005.000			18.166			-3.633
169104.000			18.166			-3.633
169204.000			18.165			-3.633
169305.000			18.166			-3.633
169404.000			18.166			-3.633
169504.000			18.165			-3.633
169604.000			18.165			-3.633
169704.000			18.164			-3.633
169803.000			18.163			-3.633
169905.000			18.164			-3.633
170004.000			18.164			-3.633
170104.000			18.162			-3.632
170205.000			18.162			-3.632
170304.000			18.162			-3.632
170404.000			18.162			-3.632
170504.000			18.162			-3.632
170604.000			18.160			-3.632
170703.000			18.160			-3.632
170805.000			18.161			-3.632
170904.000			18.161			-3.632
171004.000			18.161			-3.632
171105.000			18.160			-3.632
171204.000			18.160			-3.632
171305.000			18.159			-3.632
171403.000			18.160			-3.632
171504.000			18.159			-3.632
171604.000			18.159			-3.632
171704.000			18.158			-3.632
171804.000			18.158			-3.632
171905.000			18.158			-3.632
172004.000			18.157			-3.631
172104.000			18.158			-3.632
172205.000			18.157			-3.631
172303.000			18.156			-3.631
172404.000			18.156			-3.631
172504.000			18.156			-3.631
172604.000			18.156			-3.631
172704.000			18.156			-3.631
172805.000			18.156			-3.631
172904.000			18.156			-3.631
173004.000			18.155			-3.631
173105.000			18.154			-3.631
173203.000			18.153			-3.631
173304.000			18.154			-3.631
173405.000			18.154			-3.631
173504.000			18.153			-3.631
173604.000			18.153			-3.631
173705.000			18.153			-3.631
173804.000			18.153			-3.631
173904.000			18.152			-3.630
174005.000			18.150			-3.630
174103.000			18.151			-3.630
174204.000			18.152			-3.630
174305.000			18.151			-3.630
174404.000			18.151			-3.630
174505.000			18.150			-3.630
174604.000			18.151			-3.630
174704.000			18.149			-3.630
174805.000			18.149			-3.630
174904.000			18.149			-3.630
175003.000			18.148			-3.630
175105.000			18.148			-3.630
175203.000			18.148			-3.630
175304.000			18.148			-3.630
175405.000			18.147			-3.629
175504.000			18.147			-3.629
175604.000			18.146			-3.629
175705.000			18.146			-3.629
175804.000			18.146			-3.629
175903.000			18.146			-3.629
176005.000			18.146			-3.629
176103.000			18.146			-3.629
176204.000			18.145			-3.629
176305.000			18.145			-3.629
176404.000			18.144			-3.629
176504.000			18.145			-3.629
176605.000			18.144			-3.629
176704.000			18.143			-3.629
176803.000			18.143			-3.629
176905.000			18.142			-3.628
177003.000			18.142			-3.628
177104.000			18.142			-3.628
177205.000			18.141			-3.628
177304.000			18.141			-3.628
177404.000			18.140			-3.628
177504.000			18.141			-3.628
177604.000			18.141			-3.628
177704.000			18.140			-3.628
177804.000			18.140			-3.628
177903.000			18.140			-3.628
178005.000			18.140			-3.628
178104.000			18.140			-3.628
178204.000			18.139			-3.628
178305.000			18.139			-3.628
178404.000			18.138			-3.628
178504.000			18.137			-3.627
178605.000			18.138			-3.628
178704.000			18.138			-3.628
178803.000			18.138			-3.628
178905.000			18.139			-3.628
179004.000			18.137			-3.627
179104.000			18.135			-3.627
179205.000			18.136			-3.627
179304.000			18.136			-3.627
179404.000			18.135			-3.627
179505.000			18.135			-3.627
179604.000			18.134			-3.627
179703.000			18.134			-3.627
179805.000			18.134			-3.627
179904.000			18.133			-3.627
180004.000			18.133			-3.627
180105.000			18.133			-3.627
180204.000			18.133			-3.627
180304.000			18.133			-3.627
180405.000			18.132			-3.626
180504.000			18.132			-3.626
180603.000			18.131			-3.626
180705.000			18.132			-3.626
180804.000			18.132			-3.626
180905.000			18.132			-3.626
181004.000			18.131			-3.626
181104.000			18.130			-3.626
181205.000			18.130			-3.626
181304.000			18.130			-3.626
181404.000			18.130			-3.626
181504.000			18.129			-3.626
181604.000			18.129			-3.626
181704.000			18.128			-3.626
181805.000			18.129			-3.626
181904.000			18.129			-3.626
182004.000			18.128			-3.626
182105.000			18.128			-3.626
182204.000			18.127			-3.625
182304.000			18.126			-3.625
182404.000			18.126			-3.625
182504.000			18.126			-3.625
182604.000			18.126			-3.625
182705.000			18.126			-3.625
182804.000			18.126			-3.625
182904.000			18.125			-3.625
183005.000			18.125			-3.625
183104.000			18.125			-3.625
183204.000			18.125			-3.625
183304.000			18.124			-3.625
183404.000			18.123			-3.625
183504.000			18.123			-3.625
183605.000			18.124			-3.625
183704.000			18.123			-3.625
183804.000			18.123			-3.625
183905.000			18.123			-3.625
184003.000			18.122			-3.624
184105.000			18.122			-3.624
184203.000			18.122			-3.624
184304.000			18.121			-3.624
184405.000			18.122			-3.624
184504.000			18.122			-3.624
184604.000			18.122			-3.624
184705.000			18.121			-3.624
184804.000			18.120			-3.624
184903.000			18.119			-3.624
185005.000			18.119			-3.624
185103.000			18.120			-3.624
185204.000			18.120			-3.624
185305.000			18.120			-3.624
185404.000			18.120			-3.624
185504.000			18.119			-3.624
185605.000			18.118			-3.624
185704.000			18.118			-3.624
185804.000			18.118			-3.624
185905.000			18.118			-3.624
186003.000			18.117			-3.623
186104.000			18.117			-3.623
186205.000			18.117			-3.623
186304.000			18.116			-3.623
186404.000			18.117			-3.623
186505.000			18.117			-3.623
186604.000			18.116			-3.623
186704.000			18.115			-3.623
186805.000			18.115			-3.623
186903.000			18.116			-3.623
187004.000			18.116			-3.623
187105.000			18.115			-3.623
187204.000			18.115			-3.623
187305.000			18.115			-3.623
187404.000			18.115			-3.623
187504.000			18.114			-3.623
187605.000			18.115			-3.623
187704.000			18.114			-3.623
187803.000			18.114			-3.623
187905.000			18.113			-3.623
188004.000			18.111			-3.622
188104.000			18.112			-3.622
188205.000			18.112			-3.622
188304.000			18.112			-3.622
188404.000			18.110			-3.622
188505.000			18.111			-3.622
188604.000			18.111			-3.622
188703.000			18.110			-3.622
188805.000			18.110			-3.622
188904.000			18.109			-3.622
189004.000			18.109			-3.622
189105.000			18.109			-3.622
189204.000			18.109			-3.622
189304.000			18.110			-3.622
189405.000			18.109			-3.622
189504.000			18.109			-3.622
189603.000			18.109			-3.622
189705.000			18.109			-3.622
189803.000			18.107			-3.621
189904.000			18.107			-3.621
190005.000			18.107			-3.621
190104.000			18.106			-3.621
190204.000			18.106			-3.621
190304.000			18.106			-3.621
190404.000			18.106			-3.621
190505.000			18.106			-3.621
190604.000			18.106			-3.621
190703.000			18.106			-3.621
190805.000			18.105			-3.621
190904.000			18.105			-3.621
191004.000			18.105			-3.621
191105.000			18.105			-3.621
191204.000			18.105			-3.621
191304.000			18.104			-3.621
191404.000			18.104			-3.621
191504.000			18.102			-3.620
191603.000			18.103			-3.621
191705.000			18.103			-3.621
191804.000			18.102			-3.620
191904.000			18.102			-3.620
192005.000			18.102			-3.620
192104.000			18.102			-3.620
192204.000			18.100			-3.620
192304.000			18.100			-3.620
192404.000			18.100			-3.620
192503.000			18.099			-3.620
192605.000			18.099			-3.620
192704.000			18.099			-3.620
192804.000			18.099			-3.620
192905.000			18.099			-3.620
193004.000			18.098			-3.620
193104.000			18.098			-3.620
193204.000			18.098			-3.620
193304.000			18.097			-3.619
193403.000			18.097			-3.619
193505.000			18.097			-3.619
193604.000			18.097			-3.619
193705.000			18.096			-3.619
193804.000			18.097			-3.619
193904.000			18.096			-3.619
194005.000			18.095			-3.619
194104.000			18.095			-3.619
194204.000			18.094			-3.619
194304.000			18.092			-3.618
194404.000			18.094			-3.619
194504.000			18.093			-3.619
194605.000			18.092			-3.618
194704.000			18.094			-3.619
194804.000			18.093			-3.619
194905.000			18.092			-3.618
195004.000			18.090			-3.618
195104.000			18.091			-3.618
195204.000			18.091			-3.618
195304.000			18.091			-3.618
195403.000			18.090			-3.618
195505.000			18.089			-3.618
195604.000			18.090			-3.618
195704.000			18.090			-3.618
195805.000			18.089			-3.618
195904.000			18.089			-3.618
196004.000			18.089			-3.618
196105.000			18.088			-3.618
196204.000			18.088			-3.618
196303.000			18.088			-3.618
196405.000			18.087			-3.617
196504.000			18.086			-3.617
196604.000			18.087			-3.617
196705.000			18.087			-3.617
196804.000			18.086			-3.617
196905.000			18.085			-3.617
197004.000			18.085			-3.617
197104.000			18.086			-3.617
197204.000			18.086			-3.617
197304.000			18.084			-3.617
197403.000			18.084			-3.617
197505.000			18.084			-3.617
197604.000			18.084			-3.617
197704.000			18.083			-3.617
197805.000			18.082			-3.616
197904.000			18.084			-3.617
198004.000			18.084			-3.617
198105.000			18.082			-3.616
198204.000			18.082			-3.616
198303.000			18.082			-3.616
198405.000			18.081			-3.616
198504.000			18.081			-3.616
198604.000			18.081			-3.616
198705.000			18.081			-3.616
198804.000			18.081			-3.616
198904.000			18.080			-3.616
199005.000			18.080			-3.616
199104.000			18.079			-3.616
199203.000			18.079			-3.616
199305.000			18.079			-3.616
199403.000			18.079			-3.616
199504.000			18.079			-3.616
199605.000			18.079			-3.616
199704.000			18.078			-3.616
199804.000			18.078			-3.616
199904.000			18.078			-3.616
200004.000			18.077			-3.615
200105.000			18.078			-3.616
200204.000			18.077			-3.615
200303.000			18.077			-3.615
200405.000			18.077			-3.615
200504.000			18.076			-3.615
200604.000			18.076			-3.615
200705.000			18.075			-3.615
200804.000			18.075			-3.615
200904.000			18.075			-3.615
201005.000			18.075			-3.615
201104.000			18.075			-3.615
201203.000			18.075			-3.615
201305.000			18.074			-3.615
201404.000			18.074			-3.615
201504.000			18.074			-3.615
201605.000			18.073			-3.615
201704.000			18.073			-3.615
201804.000			18.072			-3.614
201905.000			18.072			-3.614
202004.000			18.072			-3.614
202103.000			18.072			-3.614
202205.000			18.072			-3.614
202304.000			18.072			-3.614
202404.000			18.072			-3.614
202505.000			18.071			-3.614
202604.000			18.072			-3.614
202704.000			18.071			-3.614
202804.000			18.069			-3.614
202904.000			18.070			-3.614
203003.000			18.070			-3.614
203105.000			18.070			-3.614
203204.000			18.069			-3.614
203305.000			18.069			-3.614
203404.000			18.068			-3.614
203504.000			18.068			-3.614
203605.000			18.068			-3.614
203704.000			18.068			-3.614
203804.000			18.069			-3.614
203904.000			18.068			-3.614
204004.000			18.067			-3.613
204104.000			18.068			-3.614
204205.000			18.068			-3.614
204304.000			18.067			-3.613
204404.000			18.066			-3.613
204505.000			18.066			-3.613
204603.000			18.066			-3.613
204704.000			18.066			-3.613
204804.000			18.065			-3.613
204904.000			18.064			-3.613
205004.000			18.064			-3.613
205105.000			18.065			-3.613
205204.000			18.065			-3.613
205304.000			18.064			-3.613
205405.000			18.064			-3.613
205503.000			18.063			-3.613
205604.000			18.064			-3.613
205705.000			18.063			-3.613
205804.000			18.063			-3.613
205904.000			18.062			-3.612
206005.000			18.061			-3.612
206104.000			18.061			-3.612
206204.000			18.061			-3.612
206305.000			18.062			-3.612
206403.000			18.062			-3.612
206505.000			18.061			-3.612
206604.000			18.060			-3.612
206704.000			18.060			-3.612
206805.000			18.059			-3.612
206904.000			18.059			-3.612
207004.000			18.060			-3.612
207105.000			18.061			-3.612
207204.000			18.059			-3.612
207303.000			18.059			-3.612
207405.000			18.059			-3.612
207504.000			18.059			-3.612
207604.000			18.058			-3.612
207705.000			18.058			-3.612
207804.000			18.056			-3.611
207904.000			18.057			-3.611
208005.000			18.057			-3.611
208104.000			18.056			-3.611
208203.000			18.056			-3.611
208305.000			18.056			-3.611
208404.000			18.057			-3.611
208504.000			18.057			-3.611
208605.000			18.056			-3.611
208704.000			18.055			-3.611
208804.000			18.056			-3.611
208904.000			18.056			-3.611
209004.000			18.055			-3.611
209103.000			18.055			-3.611
209205.000			18.056			-3.611
209304.000			18.054			-3.611
209404.000			18.054			-3.611
209505.000			18.054			-3.611
209604.000			18.054			-3.611
209705.000			18.052			-3.610
209803.000			18.053			-3.611
209904.000			18.054			-3.611
210004.000			18.053			-3.611
210104.000			18.053			-3.611
210204.000			18.052			-3.610
210305.000			18.052			-3.610
210404.000			18.052			-3.610
210504.000			18.052			-3.610
210605.000			18.051			-3.610
210703.000			18.050			-3.610
210804.000			18.050			-3.610
210905.000			18.051			-3.610
211004.000			18.050			-3.610
211104.000			18.050			-3.610
211205.000			18.049			-3.610
211304.000			18.049			-3.610
211404.000			18.048			-3.610
211505.000			18.047			-3.609
211603.000			18.048			-3.610
211704.000			18.048			-3.610
211805.000			18.048			-3.610
211904.000			18.048			-3.610
212004.000			18.047			-3.609
212105.000			18.048			-3.610
212204.000			18.047			-3.609
212303.000			18.045			-3.609
212405.000			18.046			-3.609
212503.000			18.047			-3.609
212604.000			18.046			-3.609
212705.000			18.045			-3.609
212804.000			18.045			-3.609
212905.000			18.046			-3.609
213004.000			18.046			-3.609
213104.000			18.046			-3.609
213204.000			18.045			-3.609
213304.000			18.045			-3.609
213403.000			18.045			-3.609
213505.000			18.045			-3.609
213604.000			18.044			-3.609
213704.000			18.044			-3.609
213805.000			18.044			-3.609
213904.000			18.043			-3.609
214004.000			18.043			-3.609
214104.000			18.043			-3.609
214204.000			18.043			-3.609
214304.000			18.044			-3.609
214405.000			18.043			-3.609
214504.000			18.042			-3.608
214604.000			18.041			-3.608
214705.000			18.040			-3.608
214804.000			18.040			-3.608
214904.000			18.040			-3.608
215004.000			18.041			-3.608
215104.000			18.041			-3.608
215204.000			18.039			-3.608
215305.000			18.038			-3.608
215404.000			18.038			-3.608
215504.000			18.038			-3.608
215605.000			18.038			-3.608
215704.000			18.038			-3.608
215804.000			18.039			-3.608
215903.000			18.038			-3.608
216004.000			18.037			-3.607
216105.000			18.037			-3.607
216204.000			18.038			-3.608
216304.000			18.037			-3.607
216405.000			18.037			-3.607
216504.000			18.037			-3.607
216604.000			18.036			-3.607
216705.000			18.036			-3.607
216803.000			18.037			-3.607
216904.000			18.036			-3.607
217005.000			18.035			-3.607
217104.000			18.035			-3.607
217204.000			18.035			-3.607
217305.000			18.035			-3.607
217404.000			18.035			-3.607
217504.000			18.035			-3.607
217605.000			18.034			-3.607
217703.000			18.034			-3.607
217804.000			18.033			-3.607
217905.000			18.032			-3.606
218004.000			18.032			-3.606
218104.000			18.032			-3.606
218205.000			18.032			-3.606
218304.000			18.032			-3.606
218403.000			18.031			-3.606
218505.000			18.032			-3.606
218603.000			18.032			-3.606
218704.000			18.032			-3.606
218805.000			18.030			-3.606
218904.000			18.030			-3.606
219004.000			18.031			-3.606
219104.000			18.030			-3.606
219204.000			18.028			-3.606
219304.000			18.030			-3.606
219404.000			18.030			-3.606
219503.000			18.030			-3.606
219605.000			18.029			-3.606
219704.000			18.028			-3.606
219804.000			18.028			-3.606
219905.000			18.029			-3.606
220004.000			18.028			-3.606
220104.000			18.028			-3.606
220204.000			18.028			-3.606
220304.000			18.026			-3.605
220403.000			18.027			-3.605
220505.000			18.028			-3.606
220604.000			18.027			-3.605
220704.000			18.027			-3.605
220805.000			18.027			-3.605
220904.000			18.027			-3.605
221004.000			18.026			-3.605
221104.000			18.025			-3.605
221204.000			18.026			-3.605
221304.000			18.027			-3.605
221405.000			18.026			-3.605
221504.000			18.027			-3.605
221604.000			18.028			-3.606
221705.000			18.027			-3.605
221804.000			18.026			-3.605
221904.000			18.027			-3.605
222004.000			18.027			-3.605
222104.000			18.027			-3.605
222204.000			18.027			-3.605
222304.000			18.026			-3.605
222404.000			18.026			-3.605
222505.000			18.026			-3.605
222604.000			18.025			-3.605
222704.000			18.025			-3.605
222805.000			18.027			-3.605
222903.000			18.025			-3.605
223004.000			18.024			-3.605
223105.000			18.025			-3.605
223204.000			18.025			-3.605
223304.000			18.025			-3.605
223405.000			18.025			-3.605
223504.000			18.024			-3.605
223603.000			18.024			-3.605
223705.000			18.024			-3.605
223804.000			18.023			-3.605
223904.000			18.022			-3.604
224005.000			18.023			-3.605
224104.000			18.021			-3.604
224204.000			18.021			-3.604
224305.000			18.022			-3.604
224404.000			18.021			-3.604
224503.000			18.020			-3.604
224605.000			18.020			-3.604
224704.000			18.020			-3.604
224804.000			18.020			-3.604
224905.000			18.019			-3.604
225004.000			18.019			-3.604
225104.000			18.020			-3.604
225204.000			18.019			-3.604
225304.000			18.019			-3.604
225403.000			18.019			-3.604
225505.000			18.019			-3.604
225604.000			18.017			-3.603
225705.000			18.016			-3.603
225804.000			18.016			-3.603
225904.000			18.016			-3.603
226005.000			18.016			-3.603
226103.000			18.017			-3.603
226204.000			18.016			-3.603
226304.000			18.015			-3.603
226404.000			18.015			-3.603
226504.000			18.015			-3.603
226605.000			18.015			-3.603
226704.000			18.015			-3.603
226804.000			18.015			-3.603
226905.000			18.014			-3.603
227003.000			18.013			-3.603
227104.000			18.014			-3.603
227205.000			18.014			-3.603
227304.000			18.014			-3.603
227404.000			18.013			-3.603
227505.000			18.013			-3.603
227604.000			18.013			-3.603
227704.000			18.013			-3.603
227805.000			18.012			-3.602
227903.000			18.013			-3.603
228004.000			18.010			-3.602
228105.000			18.010			-3.602
228204.000			18.010			-3.602
228304.000			18.010			-3.602
228405.000			18.010			-3.602
228504.000			18.011			-3.602
228603.000			18.010			-3.602
228705.000			18.010			-3.602
228803.000			18.010			-3.602
228905.000			18.009			-3.602
229004.000			18.008			-3.602
229104.000			18.008			-3.602
229205.000			18.009			-3.602
229304.000			18.008			-3.602
229404.000			18.007			-3.601
229504.000			18.007			-3.601
229604.000			18.007			-3.601
229703.000			18.007			-3.601
229805.000			18.007			-3.601
229904.000			18.007			-3.601
230004.000			18.006			-3.601
230105.000			18.005			-3.601
230204.000			18.006			-3.601
230304.000			18.006			-3.601
230404.000			18.005			-3.601
230504.000			18.005			-3.601
230603.000			18.006			-3.601
230705.000			18.005			-3.601
230804.000			18.006			-3.601
230904.000			18.005			-3.601
231005.000			18.004			-3.601
231104.000			18.004			-3.601
231204.000			18.004			-3.601
231304.000			18.003			-3.601
231404.000			18.003			-3.601
231504.000			18.002			-3.600
231605.000			18.002			-3.600
231704.000			18.003			-3.601
231804.000			18.001			-3.600
231905.000			18.002			-3.600
232003.000			18.002			-3.600
232105.000			18.002			-3.600
232204.000			18.002			-3.600
232304.000			18.001			-3.600
232405.000			18.001			-3.600
232504.000			18.001			-3.600
232604.000			18.002			-3.600
232705.000			18.001			-3.600
232804.000			18.000			-3.600
232903.000			18.000			-3.600
233005.000			17.999			-3.600
233104.000			18.000			-3.600
233204.000			18.000			-3.600
233305.000			17.999			-3.600
233404.000			17.998			-3.600
233504.000			17.998			-3.600
233605.000			17.998			-3.600
233704.000			17.998			-3.600
233803.000			17.997			-3.599
233905.000			17.997			-3.599
234003.000			17.996			-3.599
234104.000			17.996			-3.599
234205.000			17.997			-3.599
234304.000			17.997			-3.599
234404.000			17.997			-3.599
234505.000			17.996			-3.599
234604.000			17.997			-3.599
234704.000			17.996			-3.599
234805.000			17.996			-3.599
234903.000			17.995			-3.599
235004.000			17.994			-3.599
235103.000			17.995			-3.599
235204.000			17.995			-3.599
235305.000			17.994			-3.599
235404.000			17.994			-3.599
235504.000			17.993			-3.599
235605.000			17.993			-3.599
235704.000			17.993			-3.599
235804.000			17.994			-3.599
235905.000			17.994			-3.599
236003.000			17.993			-3.599
236104.000			17.994			-3.599
236205.000			17.993			-3.599
236304.000			17.992			-3.598
236404.000			17.992			-3.598
236505.000			17.991			-3.598
236604.000			17.991			-3.598
236704.000			17.991			-3.598
236805.000			17.990			-3.598
236903.000			17.989			-3.598
237004.000			17.989			-3.598
237104.000			17.989			-3.598
237204.000			17.990			-3.598
237304.000			17.990			-3.598
237405.000			17.989			-3.598
237504.000			17.990			-3.598
237604.000			17.989			-3.598
237705.000			17.988			-3.598
237804.000			17.988			-3.598
237904.000			17.988			-3.598
238004.000			17.988			-3.598
238104.000			17.988			-3.598
238203.000			17.986			-3.597
238305.000			17.986			-3.597
238404.000			17.987			-3.597
238505.000			17.987			-3.597
238604.000			17.987			-3.597
238704.000			17.986			-3.597
238805.000			17.985			-3.597
238904.000			17.984			-3.597
239004.000			17.985			-3.597
239104.000			17.985			-3.597
239204.000			17.986			-3.597
239304.000			17.985			-3.597
239405.000			17.984			-3.597
239504.000			17.985			-3.597
239604.000			17.985			-3.597
239705.000			17.984			-3.597
239804.000			17.984			-3.597
239904.000			17.983			-3.597
240004.000			17.983			-3.597
240104.000			17.983			-3.597
240203.000			17.984			-3.597
240305.000			17.983			-3.597
240404.000			17.982			-3.596
240504.000			17.982			-3.596
240605.000			17.982			-3.596
240704.000			17.981			-3.596
240804.000			17.981			-3.596
240905.000			17.981			-3.596
241004.000			17.981			-3.596
241103.000			17.981			-3.596
241205.000			17.981			-3.596
241304.000			17.981			-3.596
241404.000			17.980			-3.596
241505.000			17.980			-3.596
241604.000			17.980			-3.596
241705.000			17.979			-3.596
241804.000			17.980			-3.596
241904.000			17.979			-3.596
242004.000			17.979			-3.596
242104.000			17.979			-3.596
242204.000			17.978			-3.596
242305.000			17.978			-3.596
242404.000			17.978			-3.596
242504.000			17.977			-3.595
242605.000			17.977			-3.595
242704.000			17.976			-3.595
242804.000			17.976			-3.595
242904.000			17.978			-3.596
243004.000			17.976			-3.595
243103.000			17.975			-3.595
243205.000			17.976			-3.595
243304.000			17.976			-3.595
243404.000			17.976			-3.595
243505.000			17.977			-3.595
243604.000			17.977			-3.595
243704.000			17.977			-3.595
243805.000			17.975			-3.595
243904.000			17.975			-3.595
244003.000			17.975			-3.595
244105.000			17.975			-3.595
244204.000			17.975			-3.595
244304.000			17.974			-3.595
244405.000			17.973			-3.595
244504.000			17.973			-3.595
244604.000			17.973			-3.595
244704.000			17.973			-3.595
244804.000			17.972			-3.594
244904.000			17.973			-3.595
245004.000			17.973			-3.595
245103.000			17.972			-3.594
245205.000			17.971			-3.594
245304.000			17.970			-3.594
245404.000			17.971			-3.594
245505.000			17.971			-3.594
245604.000			17.970			-3.594
245704.000			17.971			-3.594
245804.000			17.970			-3.594
245904.000			17.971			-3.594
246003.000			17.970			-3.594
246105.000			17.969			-3.594
246204.000			17.969			-3.594
246304.000			17.969			-3.594
246405.000			17.970			-3.594
246504.000			17.970			-3.594
246604.000			17.969			-3.594
246705.000			17.970			-3.594
246804.000			17.969			-3.594
246903.000			17.968			-3.594
247005.000			17.967			-3.593
247103.000			17.967			-3.593
247204.000			17.968			-3.594
247305.000			17.967			-3.593
247404.000			17.967			-3.593
247504.000			17.967			-3.593
247605.000			17.967			-3.593
247704.000			17.966			-3.593
247804.000			17.966			-3.593
247905.000			17.966			-3.593
248003.000			17.965			-3.593
248105.000			17.965			-3.593
248204.000			17.965			-3.593
248304.000			17.965			-3.593
248405.000			17.964			-3.593
248504.000			17.965			-3.593
248604.000			17.965			-3.593
248705.000			17.965			-3.593
248804.000			17.964			-3.593
248903.000			17.964			-3.593
249005.000			17.964			-3.593
249103.000			17.962			-3.592
249204.000			17.962			-3.592
249305.000			17.962			-3.592
249404.000			17.963			-3.593
249504.000			17.964			-3.593
249605.000			17.964			-3.593
249704.000			17.964			-3.593
249804.000			17.961			-3.592
249905.000			17.962			-3.592
250003.000			17.961			-3.592
250104.000			17.960			-3.592
250205.000			17.960			-3.592
250304.000			17.961			-3.592
250404.000			17.962			-3.592
250505.000			17.961			-3.592
250604.000			17.961			-3.592
250704.000			17.960			-3.592
250805.000			17.960			-3.592
250903.000			17.960			-3.592
251004.000			17.959			-3.592
251105.000			17.960			-3.592
251204.000			17.960			-3.592
251305.000			17.959			-3.592
251404.000			17.958			-3.592
251504.000			17.958			-3.592
251605.000			17.958			-3.592
251704.000			17.958			-3.592
251803.000			17.957			-3.591
251905.000			17.958			-3.592
252003.000			17.957			-3.591
252104.000			17.956			-3.591
252205.000			17.957			-3.591
252304.000			17.956			-3.591
252404.000			17.956			-3.591
252505.000			17.957			-3.591
252604.000			17.956			-3.591
252704.000			17.955			-3.591
252805.000			17.954			-3.591
252903.000			17.955			-3.591
253004.000			17.955			-3.591
253105.000			17.954			-3.591
253204.000			17.955			-3.591
253304.000			17.955			-3.591
253405.000			17.954			-3.591
253504.000			17.954			-3.591
253604.000			17.953			-3.591
253705.000			17.952			-3.590
253803.000			17.954			-3.591
253904.000			17.954			-3.591
254005.000			17.952			-3.590
254104.000			17.952			-3.590
254204.000			17.953			-3.591
254304.000			17.953			-3.591
254404.000			17.953			-3.591
254505.000			17.953			-3.591
254604.000			17.952			-3.590
254703.000			17.953			-3.591
254805.000			17.952			-3.590
254903.000			17.951			-3.590
255004.000			17.951			-3.590
255105.000			17.951			-3.590
255204.000			17.951			-3.590
255304.000			17.950			-3.590
255405.000			17.951			-3.590
255504.000			17.950			-3.590
255603.000			17.950			-3.590
255705.000			17.951			-3.590
255803.000			17.950			-3.590
255904.000			17.949			-3.590
256005.000			17.948			-3.590
256104.000			17.948			-3.590
256204.000			17.949			-3.590
256305.000			17.949			-3.590
256404.000			17.948			-3.590
256504.000			17.948			-3.590
256605.000			17.948			-3.590
256703.000			17.948			-3.590
256804.000			17.948			-3.590
256905.000			17.948			-3.590
257004.000			17.947			-3.589
257104.000			17.946			-3.589
257205.000			17.947			-3.589
257304.000			17.947			-3.589
257404.000			17.947			-3.589
257505.000			17.947			-3.589
257604.000			17.946			-3.589
257705.000			17.946			-3.589
257803.000			17.946			-3.589
257904.000			17.946			-3.589
258005.000			17.946			-3.589
258104.000			17.946			-3.589
258204.000			17.946			-3.589
258305.000			17.947			-3.589
258404.000			17.946			-3.589
258504.000			17.946			-3.589
258605.000			17.945			-3.589
258703.000			17.946			-3.589
258804.000			17.946			-3.589
258904.000			17.946			-3.589
259004.000			17.946			-3.589
259104.000			17.945			-3.589
259205.000			17.945			-3.589
259304.000			17.945			-3.589
259404.000			17.945			-3.589
259505.000			17.944			-3.589
259604.000			17.944			-3.589
259704.000			17.943			-3.589
259804.000			17.942			-3.588
259904.000			17.943			-3.589
260004.000			17.943			-3.589
260105.000			17.942			-3.588
260204.000			17.942			-3.588
260304.000			17.942			-3.588
260405.000			17.942			-3.588
260504.000			17.942			-3.588
260604.000			17.941			-3.588
260703.000			17.941			-3.588
260804.000			17.942			-3.588
260905.000			17.941			-3.588
261004.000			17.941			-3.588
261104.000			17.941			-3.588
261205.000			17.941			-3.588
261304.000			17.940			-3.588
261404.000			17.939			-3.588
261505.000			17.939			-3.588
261603.000			17.939			-3.588
261704.000			17.939			-3.588
261804.000			17.938			-3.588
261904.000			17.939			-3.588
262004.000			17.938			-3.588
262105.000			17.938			-3.588
262204.000			17.938			-3.588
262304.000			17.936			-3.587
262405.000			17.935			-3.587
262503.000			17.936			-3.587
262604.000			17.936			-3.587
262704.000			17.936			-3.587
262804.000			17.935			-3.587
262904.000			17.935			-3.587
263005.000			17.935			-3.587
263104.000			17.935			-3.587
263204.000			17.935			-3.587
263305.000			17.934			-3.587
263403.000			17.934			-3.587
263504.000			17.934			-3.587
263604.000			17.935			-3.587
263704.000			17.933			-3.587
263804.000			17.934			-3.587
263904.000			17.932			-3.586
264004.000			17.932			-3.586
264105.000			17.932			-3.586
264204.000			17.932			-3.586
264303.000			17.932			-3.586
264405.000			17.932			-3.586
264503.000			17.932			-3.586
264604.000			17.932			-3.586
264705.000			17.932			-3.586
264804.000			17.931			-3.586
264904.000			17.931			-3.586
265005.000			17.931			-3.586
265104.000			17.931			-3.586
265203.000			17.931			-3.586
265305.000			17.931			-3.586
265403.000			17.930			-3.586
265504.000			17.929			-3.586
265605.000			17.929			-3.586
265704.000			17.928			-3.586
265804.000			17.929			-3.586
265905.000			17.928			-3.586
266004.000			17.928			-3.586
266104.000			17.929			-3.586
266205.000			17.929			-3.586
266303.000			17.928			-3.586
266404.000			17.928			-3.586
266505.000			17.928			-3.586
266604.000			17.927			-3.585
266704.000			17.927			-3.585
266805.000			17.927			-3.585
266904.000			17.926			-3.585
267004.000			17.926			-3.585
267105.000			17.927			-3.585
267203.000			17.926			-3.585
267305.000			17.926			-3.585
267403.000			17.925			-3.585
267504.000			17.925			-3.585
267605.000			17.924			-3.585
267704.000			17.924			-3.585
267804.000			17.924			-3.585
267905.000			17.924			-3.585
268004.000			17.925			-3.585
268104.000			17.925			-3.585
268205.000			17.925			-3.585
268303.000			17.924			-3.585
268404.000			17.923			-3.585
268505.000			17.923			-3.585
268604.000			17.924			-3.585
268704.000			17.924			-3.585
268805.000			17.925			-3.585
268904.000			17.925			-3.585
269004.000			17.924			-3.585
269105.000			17.924			-3.585
269203.000			17.924			-3.585
269304.000			17.924			-3.585
269404.000			17.925			-3.585
269504.000			17.923			-3.585
269604.000			17.924			-3.585
269705.000			17.924			-3.585
269804.000			17.923			-3.585
269904.000			17.924			-3.585
270005.000			17.923			-3.585
270104.000			17.923			-3.585
270204.000			17.922			-3.584
270303.000			17.922			-3.584
270404.000			17.921			-3.584
270505.000			17.921			-3.584
270604.000			17.921			-3.584
270704.000			17.921			-3.584
270805.000			17.921			-3.584
270904.000			17.922			-3.584
271004.000			17.921			-3.584
271105.000			17.920			-3.584
271203.000			17.919			-3.584
271304.000			17.919			-3.584
271405.000			17.919			-3.584
271504.000			17.919			-3.584
271604.000			17.918			-3.584
271705.000			17.918			-3.584
271804.000			17.918			-3.584
271904.000			17.917			-3.583
272005.000			17.918			-3.584
272103.000			17.918			-3.584
272204.000			17.919			-3.584
272305.000			17.918			-3.584
272404.000			17.918			-3.584
272504.000			17.917			-3.583
272605.000			17.918			-3.584
272704.000			17.918			-3.584
272804.000			17.918			-3.584
272905.000			17.918			-3.584
273003.000			17.919			-3.584
273104.000			17.918			-3.584
273205.000			17.918			-3.584
273304.000			17.918			-3.584
273404.000			17.918			-3.584
273504.000			17.917			-3.583
273604.000			17.917			-3.583
273705.000			17.916			-3.583
273804.000			17.915			-3.583
273903.000			17.916			-3.583
274005.000			17.916			-3.583
274103.000			17.916			-3.583
274204.000			17.916			-3.583
274305.000			17.915			-3.583
274404.000			17.914			-3.583
274504.000			17.914			-3.583
274605.000			17.914			-3.583
274704.000			17.914			-3.583
274803.000			17.915			-3.583
274905.000			17.913			-3.583
275003.000			17.913			-3.583
275104.000			17.913			-3.583
275205.000			17.912			-3.582
275304.000			17.912			-3.582
275404.000			17.912			-3.582
275505.000			17.911			-3.582
275604.000			17.911			-3.582
275704.000			17.911			-3.582
275805.000			17.912			-3.582
275903.000			17.910			-3.582
276004.000			17.910			-3.582
276105.000			17.911			-3.582
276204.000			17.910			-3.582
276304.000			17.909			-3.582
276405.000			17.910			-3.582
276504.000			17.910			-3.582
276604.000			17.909			-3.582
276705.000			17.909			-3.582
276803.000			17.909			-3.582
276905.000			17.909			-3.582
277003.000			17.909			-3.582
277104.000			17.909			-3.582
277205.000			17.909			-3.582
277304.000			17.907			-3.581
277404.000			17.908			-3.582
277505.000			17.908			-3.582
277604.000			17.908			-3.582
277704.000			17.908			-3.582
277805.000			17.909			-3.582
277903.000			17.908			-3.582
278004.000			17.907			-3.581
278105.000			17.907			-3.581
278204.000			17.907			-3.581
278304.000			17.906			-3.581
278405.000			17.906			-3.581
278504.000			17.906			-3.581
278604.000			17.906			-3.581
278705.000			17.905			-3.581
278803.000			17.905			-3.581
278904.000			17.905			-3.581
279004.000			17.905			-3.581
279104.000			17.904			-3.581
279204.000			17.904			-3.581
279305.000			17.904			-3.581
279404.000			17.904			-3.581
279504.000			17.904			-3.581
279605.000			17.904			-3.581
279704.000			17.904			-3.581
279804.000			17.903			-3.581
279903.000			17.902			-3.580
280004.000			17.902			-3.580
280105.000			17.903			-3.581
280204.000			17.903			-3.581
280304.000			17.902			-3.580
280405.000			17.901			-3.580
280504.000			17.902			-3.580
280604.000			17.902			-3.580
280705.000			17.901			-3.580
280803.000			17.901			-3.580
280904.000			17.901			-3.580
281005.000			17.901			-3.580
281104.000			17.902			-3.580
281204.000			17.901			-3.580
281305.000			17.901			-3.580
281404.000			17.902			-3.580
281504.000			17.902			-3.580
281605.000			17.902			-3.580
281703.000			17.901			-3.580
281804.000			17.901			-3.580
281905.000			17.901			-3.580
282004.000			17.902			-3.580
282104.000			17.901			-3.580
282205.000			17.900			-3.580
282304.000			17.900			-3.580
282404.000			17.899			-3.580
282505.000			17.899			-3.580
282603.000			17.899			-3.580
282704.000			17.898			-3.580
282804.000			17.898			-3.580
282904.000			17.898			-3.580
283004.000			17.898			-3.580
283104.000			17.898			-3.580
283204.000			17.897			-3.579
283305.000			17.897			-3.579
283404.000			17.896			-3.579
283504.000			17.896			-3.579
283605.000			17.896			-3.579
283703.000			17.895			-3.579
283804.000			17.895			-3.579
283905.000			17.896			-3.579
284004.000			17.895			-3.579
284104.000			17.895			-3.579
284205.000			17.894			-3.579
284304.000			17.894			-3.579
284404.000			17.894			-3.579
284505.000			17.893			-3.579
284603.000			17.892			-3.578
284704.000			17.893			-3.579
284804.000			17.893			-3.579
284904.000			17.893			-3.579
285004.000			17.893			-3.579
285105.000			17.891			-3.578
285204.000			17.891			-3.578
285304.000			17.891			-3.578
285405.000			17.892			-3.578
285504.000			17.891			-3.578
285604.000			17.891			-3.578
285704.000			17.891			-3.578
285804.000			17.891			-3.578
285903.000			17.890			-3.578
286005.000			17.889			-3.578
286104.000			17.889			-3.578
286204.000			17.889			-3.578
286305.000			17.889			-3.578
286404.000			17.890			-3.578
286505.000			17.890			-3.578
286604.000			17.890			-3.578
286704.000			17.888			-3.578
286804.000			17.889			-3.578
286904.000			17.888			-3.578
287003.000			17.889			-3.578
287105.000			17.888			-3.578
287204.000			17.888			-3.578
287304.000			17.888			-3.578
287405.000			17.887			-3.577
287504.000			17.887			-3.577
287604.000			17.887			-3.577
287705.000			17.886			-3.577
287804.000			17.887			-3.577
287903.000			17.887			-3.577
288005.000			17.886			-3.577
288103.000			17.886			-3.577
288204.000			17.885			-3.577
288305.000			17.885			-3.577
288404.000			17.885			-3.577
288504.000			17.885			-3.577
288605.000			17.885			-3.577
288704.000			17.885			-3.577
288804.000			17.884			-3.577
288905.000			17.885			-3.577
289003.000			17.884			-3.577
289104.000			17.884			-3.577
289204.000			17.883			-3.577
289304.000			17.884			-3.577
289404.000			17.883			-3.577
289504.000			17.882			-3.576
289604.000			17.882			-3.576
289705.000			17.883			-3.577
289804.000			17.883			-3.577
289904.000			17.883			-3.577
290005.000			17.882			-3.576
290103.000			17.881			-3.576
290204.000			17.881			-3.576
290305.000			17.881			-3.576
290404.000			17.881			-3.576
290504.000			17.880			-3.576
290605.000			17.879			-3.576
290704.000			17.880			-3.576
290804.000			17.880			-3.576
290905.000			17.881			-3.576
291003.000			17.881			-3.576
291104.000			17.880			-3.576
291205.000			17.879			-3.576
291304.000			17.879			-3.576
291404.000			17.879			-3.576
291505.000			17.880			-3.576
291604.000			17.880			-3.576
291704.000			17.879			-3.576
291805.000			17.879			-3.576
291904.000			17.878			-3.576
292004.000			17.878			-3.576
292104.000			17.878			-3.576
292204.000			17.878			-3.576
292304.000			17.877			-3.575
292405.000			17.877			-3.575
292504.000			17.878			-3.576
292604.000			17.879			-3.576
292705.000			17.878			-3.576
292804.000			17.878			-3.576
292905.000			17.877			-3.575
293003.000			17.876			-3.575
293104.000			17.876			-3.575
293204.000			17.876			-3.575
293304.000			17.877			-3.575
293404.000			17.877			-3.575
293505.000			17.877			-3.575
293604.000			17.875			-3.575
293704.000			17.875			-3.575
293805.000			17.875			-3.575
293904.000			17.875			-3.575
294004.000			17.875			-3.575
294104.000			17.875			-3.575
294204.000			17.875			-3.575
294304.000			17.875			-3.575
294405.000			17.874			-3.575
294504.000			17.875			-3.575
294604.000			17.874			-3.575
294705.000			17.872			-3.574
294804.000			17.873			-3.575
294904.000			17.874			-3.575
295004.000			17.874			-3.575
295104.000			17.873			-3.575
295203.000			17.873			-3.575
295305.000			17.873			-3.575
295404.000			17.874			-3.575
295504.000			17.874			-3.575
295605.000			17.873			-3.575
295704.000			17.872			-3.574
295804.000			17.872			-3.574
295904.000			17.872			-3.574
296004.000			17.870			-3.574
296104.000			17.870			-3.574
296204.000			17.871			-3.574
296304.000			17.871			-3.574
296405.000			17.870			-3.574
296504.000			17.870			-3.574
296604.000			17.871			-3.574
296705.000			17.870			-3.574
296804.000			17.870			-3.574
296904.000			17.870			-3.574
297004.000			17.870			-3.574
297104.000			17.870			-3.574
297203.000			17.869			-3.574
297305.000			17.869			-3.574
297404.000			17.869			-3.574
297504.000			17.869			-3.574
297605.000			17.869			-3.574
297704.000			17.869			-3.574
297804.000			17.868			-3.574
297905.000			17.867			-3.573
298004.000			17.868			-3.574
298103.000			17.868			-3.574
298205.000			17.867			-3.573
298303.000			17.867			-3.573
298404.000			17.867			-3.573
298505.000			17.867			-3.573
298604.000			17.867			-3.573
298704.000			17.866			-3.573
298805.000			17.866			-3.573
298904.000			17.866			-3.573
299004.000			17.866			-3.573
299105.000			17.866			-3.573
299203.000			17.866			-3.573
299305.000			17.865			-3.573
299404.000			17.864			-3.573
299504.000			17.866			-3.573
299605.000			17.865			-3.573
299704.000			17.864			-3.573
299804.000			17.863			-3.573
299905.000			17.864			-3.573
