# Acquired on 19/12/2023 17:14:46 
# SPIDER: Creep_1mm_07714532C-2
# CREEP MEASUREMENT

# time [ms]		force [N]		stiffness [N/mm]
0.000			-1.121			-1.121
100.000			-1.850			-1.850
202.000			-2.186			-2.186
300.000			-2.252			-2.252
400.000			-2.246			-2.246
501.000			-2.233			-2.233
600.000			-2.229			-2.229
700.000			-2.225			-2.225
802.000			-2.222			-2.222
901.000			-2.218			-2.218
1000.000			-2.215			-2.215
1101.000			-2.213			-2.213
1200.000			-2.209			-2.209
1300.000			-2.207			-2.207
1401.000			-2.205			-2.205
1501.000			-2.203			-2.203
1601.000			-2.201			-2.201
1701.000			-2.201			-2.201
1800.000			-2.200			-2.200
1900.000			-2.197			-2.197
2000.000			-2.195			-2.195
2100.000			-2.193			-2.193
2201.000			-2.192			-2.192
2301.000			-2.191			-2.191
2401.000			-2.190			-2.190
2501.000			-2.188			-2.188
2600.000			-2.187			-2.187
2700.000			-2.186			-2.186
2801.000			-2.185			-2.185
2900.000			-2.184			-2.184
3000.000			-2.183			-2.183
3102.000			-2.182			-2.182
3201.000			-2.180			-2.180
3300.000			-2.180			-2.180
3401.000			-2.179			-2.179
3500.000			-2.177			-2.177
3600.000			-2.176			-2.176
3701.000			-2.176			-2.176
3801.000			-2.175			-2.175
3901.000			-2.175			-2.175
4001.000			-2.174			-2.174
4100.000			-2.173			-2.173
4200.000			-2.172			-2.172
4301.000			-2.171			-2.171
4400.000			-2.171			-2.171
4501.000			-2.171			-2.171
4602.000			-2.170			-2.170
4700.000			-2.169			-2.169
4800.000			-2.168			-2.168
4901.000			-2.167			-2.167
5000.000			-2.165			-2.165
5100.000			-2.166			-2.166
5200.000			-2.165			-2.165
5301.000			-2.164			-2.164
5402.000			-2.164			-2.164
5500.000			-2.164			-2.164
5600.000			-2.161			-2.161
5701.000			-2.160			-2.160
5800.000			-2.161			-2.161
5900.000			-2.160			-2.160
6002.000			-2.158			-2.158
6101.000			-2.159			-2.159
6200.000			-2.159			-2.159
6301.000			-2.159			-2.159
6400.000			-2.157			-2.157
6500.000			-2.158			-2.158
6601.000			-2.158			-2.158
6700.000			-2.157			-2.157
6801.000			-2.157			-2.157
6902.000			-2.156			-2.156
7000.000			-2.156			-2.156
7100.000			-2.154			-2.154
7201.000			-2.154			-2.154
7300.000			-2.154			-2.154
7400.000			-2.154			-2.154
7502.000			-2.153			-2.153
7601.000			-2.151			-2.151
7700.000			-2.151			-2.151
7801.000			-2.151			-2.151
7900.000			-2.151			-2.151
8000.000			-2.151			-2.151
8101.000			-2.151			-2.151
8201.000			-2.151			-2.151
8302.000			-2.149			-2.149
8400.000			-2.149			-2.149
8500.000			-2.149			-2.149
8601.000			-2.149			-2.149
8700.000			-2.147			-2.147
8800.000			-2.148			-2.148
8901.000			-2.148			-2.148
9001.000			-2.147			-2.147
9101.000			-2.147			-2.147
9201.000			-2.146			-2.146
9300.000			-2.146			-2.146
9400.000			-2.145			-2.145
9501.000			-2.146			-2.146
9600.000			-2.146			-2.146
9701.000			-2.145			-2.145
9802.000			-2.145			-2.145
9900.000			-2.144			-2.144
10000.000			-2.143			-2.143
10101.000			-2.143			-2.143
10200.000			-2.142			-2.142
10300.000			-2.142			-2.142
10401.000			-2.143			-2.143
10501.000			-2.143			-2.143
10601.000			-2.142			-2.142
10701.000			-2.141			-2.141
10800.000			-2.140			-2.140
10900.000			-2.140			-2.140
11001.000			-2.140			-2.140
11100.000			-2.140			-2.140
11201.000			-2.140			-2.140
11302.000			-2.138			-2.138
11400.000			-2.137			-2.137
11500.000			-2.138			-2.138
11600.000			-2.137			-2.137
11700.000			-2.137			-2.137
11801.000			-2.137			-2.137
11900.000			-2.137			-2.137
12001.000			-2.136			-2.136
12102.000			-2.136			-2.136
12200.000			-2.136			-2.136
12300.000			-2.135			-2.135
12401.000			-2.135			-2.135
12500.000			-2.134			-2.134
12600.000			-2.135			-2.135
12701.000			-2.134			-2.134
12801.000			-2.134			-2.134
12901.000			-2.134			-2.134
13001.000			-2.133			-2.133
13100.000			-2.133			-2.133
13200.000			-2.133			-2.133
13301.000			-2.132			-2.132
13400.000			-2.132			-2.132
13501.000			-2.133			-2.133
13602.000			-2.132			-2.132
13700.000			-2.131			-2.131
13800.000			-2.132			-2.132
13901.000			-2.131			-2.131
14000.000			-2.132			-2.132
14100.000			-2.131			-2.131
14202.000			-2.129			-2.129
14301.000			-2.129			-2.129
14401.000			-2.131			-2.131
14501.000			-2.130			-2.130
14600.000			-2.130			-2.130
14700.000			-2.129			-2.129
14800.000			-2.128			-2.128
14900.000			-2.128			-2.128
15002.000			-2.128			-2.128
15101.000			-2.128			-2.128
15200.000			-2.127			-2.127
15301.000			-2.127			-2.127
15400.000			-2.128			-2.128
15500.000			-2.127			-2.127
15601.000			-2.127			-2.127
15700.000			-2.127			-2.127
15801.000			-2.127			-2.127
15902.000			-2.127			-2.127
16000.000			-2.127			-2.127
16100.000			-2.127			-2.127
16201.000			-2.127			-2.127
16300.000			-2.126			-2.126
16400.000			-2.126			-2.126
16502.000			-2.125			-2.125
16601.000			-2.125			-2.125
16700.000			-2.125			-2.125
16801.000			-2.125			-2.125
16900.000			-2.124			-2.124
17000.000			-2.124			-2.124
17101.000			-2.124			-2.124
17200.000			-2.123			-2.123
17301.000			-2.123			-2.123
17402.000			-2.123			-2.123
17500.000			-2.124			-2.124
17600.000			-2.123			-2.123
17701.000			-2.123			-2.123
17800.000			-2.123			-2.123
17900.000			-2.125			-2.125
18000.000			-2.124			-2.124
18101.000			-2.122			-2.122
18201.000			-2.122			-2.122
18300.000			-2.122			-2.122
18400.000			-2.122			-2.122
18501.000			-2.122			-2.122
18600.000			-2.121			-2.121
18700.000			-2.121			-2.121
18802.000			-2.122			-2.122
18901.000			-2.121			-2.121
19000.000			-2.120			-2.120
19101.000			-2.120			-2.120
19200.000			-2.120			-2.120
19300.000			-2.121			-2.121
19401.000			-2.120			-2.120
19500.000			-2.119			-2.119
19601.000			-2.120			-2.120
19702.000			-2.119			-2.119
19800.000			-2.120			-2.120
19900.000			-2.119			-2.119
20001.000			-2.119			-2.119
20100.000			-2.118			-2.118
20200.000			-2.117			-2.117
20302.000			-2.117			-2.117
20401.000			-2.118			-2.118
20500.000			-2.117			-2.117
20601.000			-2.116			-2.116
20700.000			-2.116			-2.116
20800.000			-2.117			-2.117
20901.000			-2.117			-2.117
21000.000			-2.114			-2.114
21100.000			-2.114			-2.114
21202.000			-2.115			-2.115
21301.000			-2.115			-2.115
21401.000			-2.114			-2.114
21500.000			-2.115			-2.115
21600.000			-2.115			-2.115
21701.000			-2.113			-2.113
21800.000			-2.114			-2.114
21901.000			-2.112			-2.112
22002.000			-2.112			-2.112
22100.000			-2.113			-2.113
22200.000			-2.114			-2.114
22301.000			-2.113			-2.113
22400.000			-2.113			-2.113
22500.000			-2.113			-2.113
22601.000			-2.113			-2.113
22701.000			-2.113			-2.113
22801.000			-2.113			-2.113
22901.000			-2.112			-2.112
23000.000			-2.111			-2.111
23100.000			-2.111			-2.111
23201.000			-2.111			-2.111
23300.000			-2.110			-2.110
23401.000			-2.111			-2.111
23502.000			-2.111			-2.111
23600.000			-2.111			-2.111
23700.000			-2.112			-2.112
23801.000			-2.112			-2.112
23900.000			-2.111			-2.111
24000.000			-2.110			-2.110
24102.000			-2.111			-2.111
24201.000			-2.111			-2.111
24300.000			-2.111			-2.111
24400.000			-2.110			-2.110
24500.000			-2.109			-2.109
24601.000			-2.109			-2.109
24700.000			-2.110			-2.110
24800.000			-2.111			-2.111
24902.000			-2.111			-2.111
25001.000			-2.109			-2.109
25100.000			-2.109			-2.109
25201.000			-2.109			-2.109
25300.000			-2.109			-2.109
25400.000			-2.108			-2.108
25501.000			-2.107			-2.107
25600.000			-2.107			-2.107
25701.000			-2.108			-2.108
25802.000			-2.108			-2.108
25900.000			-2.107			-2.107
26000.000			-2.107			-2.107
26101.000			-2.106			-2.106
26200.000			-2.106			-2.106
26300.000			-2.106			-2.106
26402.000			-2.107			-2.107
26501.000			-2.106			-2.106
26600.000			-2.106			-2.106
26701.000			-2.106			-2.106
26800.000			-2.105			-2.105
26900.000			-2.105			-2.105
27001.000			-2.105			-2.105
27100.000			-2.105			-2.105
27201.000			-2.106			-2.106
27302.000			-2.106			-2.106
27400.000			-2.105			-2.105
27500.000			-2.104			-2.104
27600.000			-2.105			-2.105
27700.000			-2.105			-2.105
27801.000			-2.105			-2.105
27900.000			-2.104			-2.104
28001.000			-2.105			-2.105
28102.000			-2.105			-2.105
28200.000			-2.104			-2.104
28300.000			-2.103			-2.103
28401.000			-2.104			-2.104
28500.000			-2.104			-2.104
28600.000			-2.103			-2.103
28701.000			-2.102			-2.102
28801.000			-2.102			-2.102
28901.000			-2.104			-2.104
29001.000			-2.103			-2.103
29100.000			-2.102			-2.102
29200.000			-2.102			-2.102
29301.000			-2.103			-2.103
29400.000			-2.103			-2.103
29501.000			-2.103			-2.103
29602.000			-2.103			-2.103
29700.000			-2.102			-2.102
29800.000			-2.102			-2.102
29901.000			-2.102			-2.102
30000.000			-2.102			-2.102
30100.000			-2.102			-2.102
30201.000			-2.103			-2.103
30301.000			-2.102			-2.102
30401.000			-2.102			-2.102
30501.000			-2.101			-2.101
30600.000			-2.100			-2.100
30700.000			-2.100			-2.100
30800.000			-2.101			-2.101
30900.000			-2.100			-2.100
31002.000			-2.100			-2.100
31101.000			-2.100			-2.100
31200.000			-2.101			-2.101
31301.000			-2.099			-2.099
31400.000			-2.099			-2.099
31500.000			-2.100			-2.100
31601.000			-2.099			-2.099
31701.000			-2.099			-2.099
31801.000			-2.099			-2.099
31902.000			-2.099			-2.099
32000.000			-2.099			-2.099
32100.000			-2.099			-2.099
32201.000			-2.099			-2.099
32300.000			-2.098			-2.098
32400.000			-2.098			-2.098
32502.000			-2.098			-2.098
32601.000			-2.098			-2.098
32701.000			-2.098			-2.098
32801.000			-2.097			-2.097
32900.000			-2.096			-2.096
33000.000			-2.097			-2.097
33101.000			-2.097			-2.097
33200.000			-2.097			-2.097
33301.000			-2.097			-2.097
33402.000			-2.097			-2.097
33501.000			-2.096			-2.096
33600.000			-2.097			-2.097
33701.000			-2.096			-2.096
33800.000			-2.097			-2.097
33900.000			-2.097			-2.097
34000.000			-2.096			-2.096
34101.000			-2.096			-2.096
34202.000			-2.095			-2.095
34300.000			-2.096			-2.096
34400.000			-2.095			-2.095
34501.000			-2.096			-2.096
34600.000			-2.096			-2.096
34700.000			-2.096			-2.096
34801.000			-2.095			-2.095
34901.000			-2.095			-2.095
35001.000			-2.094			-2.094
35101.000			-2.094			-2.094
35200.000			-2.095			-2.095
35300.000			-2.095			-2.095
35401.000			-2.094			-2.094
35500.000			-2.094			-2.094
35600.000			-2.094			-2.094
35702.000			-2.093			-2.093
35801.000			-2.094			-2.094
35900.000			-2.094			-2.094
36001.000			-2.094			-2.094
36100.000			-2.093			-2.093
36200.000			-2.093			-2.093
36301.000			-2.094			-2.094
36400.000			-2.092			-2.092
36501.000			-2.092			-2.092
36602.000			-2.092			-2.092
36700.000			-2.092			-2.092
36800.000			-2.092			-2.092
36901.000			-2.092			-2.092
37000.000			-2.091			-2.091
37100.000			-2.092			-2.092
37202.000			-2.091			-2.091
37301.000			-2.092			-2.092
37402.000			-2.092			-2.092
37500.000			-2.091			-2.091
37600.000			-2.092			-2.092
37701.000			-2.091			-2.091
37800.000			-2.091			-2.091
37900.000			-2.091			-2.091
38002.000			-2.090			-2.090
38101.000			-2.090			-2.090
38200.000			-2.089			-2.089
38301.000			-2.091			-2.091
38400.000			-2.090			-2.090
38500.000			-2.090			-2.090
38601.000			-2.090			-2.090
38700.000			-2.090			-2.090
38801.000			-2.090			-2.090
38902.000			-2.090			-2.090
39001.000			-2.089			-2.089
39100.000			-2.090			-2.090
39201.000			-2.090			-2.090
39300.000			-2.090			-2.090
39400.000			-2.089			-2.089
39501.000			-2.090			-2.090
39601.000			-2.089			-2.089
39701.000			-2.089			-2.089
39802.000			-2.090			-2.090
39900.000			-2.089			-2.089
40000.000			-2.088			-2.088
40101.000			-2.089			-2.089
40200.000			-2.088			-2.088
40300.000			-2.087			-2.087
40402.000			-2.088			-2.088
40501.000			-2.088			-2.088
40601.000			-2.088			-2.088
40700.000			-2.087			-2.087
40800.000			-2.088			-2.088
40901.000			-2.088			-2.088
41000.000			-2.087			-2.087
41100.000			-2.088			-2.088
41202.000			-2.088			-2.088
41301.000			-2.088			-2.088
41400.000			-2.087			-2.087
41501.000			-2.088			-2.088
41600.000			-2.088			-2.088
41700.000			-2.088			-2.088
41801.000			-2.087			-2.087
41900.000			-2.087			-2.087
42001.000			-2.087			-2.087
42102.000			-2.087			-2.087
42200.000			-2.088			-2.088
42300.000			-2.086			-2.086
42401.000			-2.086			-2.086
42500.000			-2.086			-2.086
42600.000			-2.086			-2.086
42701.000			-2.085			-2.085
42801.000			-2.086			-2.086
42901.000			-2.087			-2.087
43001.000			-2.087			-2.087
43100.000			-2.087			-2.087
43200.000			-2.086			-2.086
43301.000			-2.086			-2.086
43400.000			-2.087			-2.087
43500.000			-2.087			-2.087
43602.000			-2.087			-2.087
43701.000			-2.087			-2.087
43801.000			-2.086			-2.086
43900.000			-2.086			-2.086
44000.000			-2.086			-2.086
44101.000			-2.086			-2.086
44200.000			-2.086			-2.086
44300.000			-2.086			-2.086
44402.000			-2.086			-2.086
44501.000			-2.086			-2.086
44600.000			-2.086			-2.086
44701.000			-2.086			-2.086
44800.000			-2.086			-2.086
44900.000			-2.086			-2.086
45001.000			-2.086			-2.086
45101.000			-2.085			-2.085
45201.000			-2.086			-2.086
45302.000			-2.085			-2.085
45400.000			-2.085			-2.085
45500.000			-2.085			-2.085
45601.000			-2.084			-2.084
45700.000			-2.084			-2.084
45800.000			-2.084			-2.084
45902.000			-2.084			-2.084
46001.000			-2.085			-2.085
46100.000			-2.086			-2.086
46201.000			-2.085			-2.085
46300.000			-2.084			-2.084
46400.000			-2.085			-2.085
46501.000			-2.085			-2.085
46600.000			-2.084			-2.084
46702.000			-2.083			-2.083
46801.000			-2.084			-2.084
46900.000			-2.084			-2.084
47001.000			-2.083			-2.083
47100.000			-2.084			-2.084
47200.000			-2.084			-2.084
47301.000			-2.084			-2.084
47400.000			-2.083			-2.083
47501.000			-2.083			-2.083
47602.000			-2.084			-2.084
47700.000			-2.083			-2.083
47800.000			-2.083			-2.083
47901.000			-2.084			-2.084
48000.000			-2.084			-2.084
48100.000			-2.083			-2.083
48201.000			-2.083			-2.083
48301.000			-2.084			-2.084
48401.000			-2.084			-2.084
48501.000			-2.083			-2.083
48600.000			-2.082			-2.082
48700.000			-2.082			-2.082
48801.000			-2.082			-2.082
48900.000			-2.083			-2.083
49000.000			-2.083			-2.083
49102.000			-2.082			-2.082
49201.000			-2.082			-2.082
49300.000			-2.083			-2.083
49401.000			-2.082			-2.082
49500.000			-2.082			-2.082
49600.000			-2.083			-2.083
49701.000			-2.083			-2.083
49800.000			-2.083			-2.083
49902.000			-2.081			-2.081
50001.000			-2.082			-2.082
50100.000			-2.082			-2.082
50201.000			-2.081			-2.081
50300.000			-2.082			-2.082
50400.000			-2.081			-2.081
50501.000			-2.081			-2.081
50601.000			-2.081			-2.081
50701.000			-2.082			-2.082
50801.000			-2.082			-2.082
50900.000			-2.081			-2.081
51000.000			-2.080			-2.080
51101.000			-2.080			-2.080
51200.000			-2.080			-2.080
51300.000			-2.080			-2.080
51402.000			-2.080			-2.080
51501.000			-2.080			-2.080
51600.000			-2.080			-2.080
51701.000			-2.079			-2.079
51800.000			-2.080			-2.080
51900.000			-2.080			-2.080
52001.000			-2.081			-2.081
52100.000			-2.080			-2.080
52201.000			-2.079			-2.079
52302.000			-2.080			-2.080
52400.000			-2.079			-2.079
52500.000			-2.079			-2.079
52601.000			-2.079			-2.079
52700.000			-2.079			-2.079
52800.000			-2.078			-2.078
52901.000			-2.079			-2.079
53001.000			-2.079			-2.079
53102.000			-2.078			-2.078
53200.000			-2.079			-2.079
53300.000			-2.079			-2.079
53401.000			-2.079			-2.079
53500.000			-2.078			-2.078
53600.000			-2.078			-2.078
53702.000			-2.078			-2.078
53801.000			-2.079			-2.079
53901.000			-2.078			-2.078
54001.000			-2.078			-2.078
54100.000			-2.078			-2.078
54200.000			-2.078			-2.078
54301.000			-2.079			-2.079
54400.000			-2.078			-2.078
54501.000			-2.078			-2.078
54602.000			-2.078			-2.078
54700.000			-2.078			-2.078
54800.000			-2.078			-2.078
54901.000			-2.078			-2.078
55000.000			-2.077			-2.077
55100.000			-2.077			-2.077
55201.000			-2.077			-2.077
55301.000			-2.077			-2.077
55401.000			-2.076			-2.076
55501.000			-2.078			-2.078
55600.000			-2.076			-2.076
55700.000			-2.076			-2.076
55801.000			-2.077			-2.077
55900.000			-2.078			-2.078
56000.000			-2.078			-2.078
56102.000			-2.078			-2.078
56201.000			-2.077			-2.077
56300.000			-2.077			-2.077
56400.000			-2.078			-2.078
56500.000			-2.077			-2.077
56601.000			-2.077			-2.077
56700.000			-2.076			-2.076
56800.000			-2.076			-2.076
56902.000			-2.076			-2.076
57001.000			-2.076			-2.076
57100.000			-2.076			-2.076
57201.000			-2.076			-2.076
57300.000			-2.077			-2.077
57400.000			-2.076			-2.076
57501.000			-2.076			-2.076
57600.000			-2.076			-2.076
57701.000			-2.075			-2.075
57802.000			-2.076			-2.076
57900.000			-2.075			-2.075
58000.000			-2.075			-2.075
58101.000			-2.076			-2.076
58200.000			-2.075			-2.075
58300.000			-2.074			-2.074
58401.000			-2.074			-2.074
58501.000			-2.075			-2.075
58601.000			-2.075			-2.075
58701.000			-2.074			-2.074
58800.000			-2.074			-2.074
58900.000			-2.074			-2.074
59001.000			-2.074			-2.074
59100.000			-2.074			-2.074
59200.000			-2.074			-2.074
59302.000			-2.074			-2.074
59401.000			-2.074			-2.074
59500.000			-2.075			-2.075
59600.000			-2.075			-2.075
59700.000			-2.074			-2.074
59801.000			-2.074			-2.074
59900.000			-2.075			-2.075
60000.000			-2.075			-2.075
60102.000			-2.075			-2.075
60201.000			-2.074			-2.074
60300.000			-2.074			-2.074
60401.000			-2.075			-2.075
60500.000			-2.074			-2.074
60600.000			-2.075			-2.075
60701.000			-2.074			-2.074
60800.000			-2.074			-2.074
60901.000			-2.075			-2.075
61002.000			-2.075			-2.075
61100.000			-2.075			-2.075
61200.000			-2.075			-2.075
61301.000			-2.074			-2.074
61400.000			-2.075			-2.075
61500.000			-2.075			-2.075
61602.000			-2.075			-2.075
61701.000			-2.074			-2.074
61800.000			-2.074			-2.074
61901.000			-2.074			-2.074
62000.000			-2.075			-2.075
62100.000			-2.075			-2.075
62201.000			-2.075			-2.075
62300.000			-2.075			-2.075
62401.000			-2.076			-2.076
62502.000			-2.074			-2.074
62600.000			-2.074			-2.074
62700.000			-2.074			-2.074
62800.000			-2.075			-2.075
62900.000			-2.074			-2.074
63001.000			-2.074			-2.074
63100.000			-2.074			-2.074
63201.000			-2.074			-2.074
63302.000			-2.074			-2.074
63400.000			-2.074			-2.074
63500.000			-2.074			-2.074
63601.000			-2.074			-2.074
63700.000			-2.074			-2.074
63800.000			-2.074			-2.074
63901.000			-2.074			-2.074
64001.000			-2.073			-2.073
64101.000			-2.074			-2.074
64201.000			-2.074			-2.074
64300.000			-2.074			-2.074
64400.000			-2.074			-2.074
64501.000			-2.074			-2.074
64600.000			-2.074			-2.074
64700.000			-2.074			-2.074
64802.000			-2.073			-2.073
64901.000			-2.073			-2.073
65000.000			-2.073			-2.073
65101.000			-2.073			-2.073
65200.000			-2.073			-2.073
65300.000			-2.072			-2.072
65401.000			-2.072			-2.072
65501.000			-2.073			-2.073
65601.000			-2.073			-2.073
65702.000			-2.073			-2.073
65800.000			-2.073			-2.073
65900.000			-2.073			-2.073
66000.000			-2.072			-2.072
66100.000			-2.073			-2.073
66201.000			-2.073			-2.073
66300.000			-2.072			-2.072
66401.000			-2.072			-2.072
66502.000			-2.072			-2.072
66600.000			-2.071			-2.071
66700.000			-2.071			-2.071
66801.000			-2.071			-2.071
66900.000			-2.072			-2.072
67000.000			-2.071			-2.071
67102.000			-2.071			-2.071
67201.000			-2.072			-2.072
67301.000			-2.072			-2.072
67401.000			-2.071			-2.071
67500.000			-2.071			-2.071
67600.000			-2.071			-2.071
67701.000			-2.071			-2.071
67800.000			-2.071			-2.071
67900.000			-2.071			-2.071
68002.000			-2.070			-2.070
68101.000			-2.070			-2.070
68200.000			-2.070			-2.070
68301.000			-2.071			-2.071
68400.000			-2.071			-2.071
68500.000			-2.072			-2.072
68601.000			-2.071			-2.071
68701.000			-2.070			-2.070
68801.000			-2.070			-2.070
68902.000			-2.069			-2.069
69000.000			-2.070			-2.070
69100.000			-2.070			-2.070
69200.000			-2.070			-2.070
69300.000			-2.070			-2.070
69401.000			-2.070			-2.070
69501.000			-2.070			-2.070
69601.000			-2.070			-2.070
69702.000			-2.070			-2.070
69800.000			-2.070			-2.070
69900.000			-2.069			-2.069
70001.000			-2.068			-2.068
70100.000			-2.068			-2.068
70200.000			-2.068			-2.068
70301.000			-2.068			-2.068
70401.000			-2.068			-2.068
70501.000			-2.068			-2.068
70601.000			-2.068			-2.068
70700.000			-2.067			-2.067
70800.000			-2.067			-2.067
70901.000			-2.068			-2.068
71000.000			-2.067			-2.067
71100.000			-2.067			-2.067
71202.000			-2.066			-2.066
71301.000			-2.066			-2.066
71400.000			-2.066			-2.066
71501.000			-2.066			-2.066
71600.000			-2.066			-2.066
71700.000			-2.065			-2.065
71801.000			-2.065			-2.065
71901.000			-2.066			-2.066
72001.000			-2.067			-2.067
72101.000			-2.066			-2.066
72200.000			-2.066			-2.066
72300.000			-2.066			-2.066
72400.000			-2.065			-2.065
72500.000			-2.065			-2.065
72601.000			-2.065			-2.065
72701.000			-2.066			-2.066
72801.000			-2.066			-2.066
72901.000			-2.066			-2.066
73000.000			-2.065			-2.065
73100.000			-2.065			-2.065
73201.000			-2.065			-2.065
73300.000			-2.064			-2.064
73400.000			-2.064			-2.064
73502.000			-2.064			-2.064
73601.000			-2.065			-2.065
73700.000			-2.065			-2.065
73801.000			-2.065			-2.065
73900.000			-2.065			-2.065
74000.000			-2.064			-2.064
74101.000			-2.064			-2.064
74200.000			-2.064			-2.064
74301.000			-2.065			-2.065
74402.000			-2.064			-2.064
74500.000			-2.064			-2.064
74600.000			-2.064			-2.064
74701.000			-2.064			-2.064
74800.000			-2.064			-2.064
74900.000			-2.064			-2.064
75001.000			-2.064			-2.064
75101.000			-2.063			-2.063
75201.000			-2.064			-2.064
75301.000			-2.064			-2.064
75400.000			-2.063			-2.063
75500.000			-2.062			-2.062
75600.000			-2.063			-2.063
75700.000			-2.063			-2.063
75801.000			-2.063			-2.063
75901.000			-2.063			-2.063
76001.000			-2.063			-2.063
76101.000			-2.062			-2.062
76200.000			-2.062			-2.062
76300.000			-2.063			-2.063
76401.000			-2.063			-2.063
76500.000			-2.063			-2.063
76600.000			-2.063			-2.063
76702.000			-2.062			-2.062
76801.000			-2.062			-2.062
76900.000			-2.062			-2.062
77001.000			-2.061			-2.061
77100.000			-2.061			-2.061
77200.000			-2.061			-2.061
77301.000			-2.061			-2.061
77400.000			-2.062			-2.062
77501.000			-2.062			-2.062
77602.000			-2.062			-2.062
77700.000			-2.062			-2.062
77800.000			-2.062			-2.062
77901.000			-2.062			-2.062
78000.000			-2.062			-2.062
78100.000			-2.061			-2.061
78201.000			-2.062			-2.062
78301.000			-2.062			-2.062
78401.000			-2.062			-2.062
78501.000			-2.062			-2.062
78600.000			-2.062			-2.062
78700.000			-2.061			-2.061
78800.000			-2.061			-2.061
78900.000			-2.061			-2.061
79001.000			-2.061			-2.061
79101.000			-2.061			-2.061
79201.000			-2.061			-2.061
79301.000			-2.061			-2.061
79400.000			-2.062			-2.062
79500.000			-2.061			-2.061
79601.000			-2.061			-2.061
79700.000			-2.061			-2.061
79800.000			-2.061			-2.061
79902.000			-2.062			-2.062
80001.000			-2.061			-2.061
80100.000			-2.061			-2.061
80201.000			-2.061			-2.061
80300.000			-2.062			-2.062
80400.000			-2.059			-2.059
80501.000			-2.060			-2.060
80600.000			-2.060			-2.060
80701.000			-2.061			-2.061
80802.000			-2.061			-2.061
80900.000			-2.060			-2.060
81000.000			-2.061			-2.061
81101.000			-2.061			-2.061
81200.000			-2.060			-2.060
81300.000			-2.061			-2.061
81401.000			-2.060			-2.060
81501.000			-2.060			-2.060
81601.000			-2.060			-2.060
81701.000			-2.060			-2.060
81800.000			-2.061			-2.061
81900.000			-2.060			-2.060
82000.000			-2.060			-2.060
82100.000			-2.060			-2.060
82201.000			-2.061			-2.061
82301.000			-2.060			-2.060
82401.000			-2.060			-2.060
82501.000			-2.060			-2.060
82600.000			-2.059			-2.059
82700.000			-2.059			-2.059
82801.000			-2.059			-2.059
82900.000			-2.059			-2.059
83001.000			-2.059			-2.059
83102.000			-2.060			-2.060
83201.000			-2.060			-2.060
83300.000			-2.060			-2.060
83401.000			-2.060			-2.060
83500.000			-2.060			-2.060
83600.000			-2.059			-2.059
83701.000			-2.058			-2.058
83801.000			-2.058			-2.058
83901.000			-2.058			-2.058
84002.000			-2.058			-2.058
84100.000			-2.058			-2.058
84200.000			-2.058			-2.058
84301.000			-2.058			-2.058
84400.000			-2.059			-2.059
84500.000			-2.058			-2.058
84601.000			-2.059			-2.059
84701.000			-2.060			-2.060
84801.000			-2.057			-2.057
84901.000			-2.058			-2.058
85000.000			-2.058			-2.058
85100.000			-2.059			-2.059
85200.000			-2.060			-2.060
85300.000			-2.060			-2.060
85401.000			-2.060			-2.060
85501.000			-2.059			-2.059
85601.000			-2.059			-2.059
85701.000			-2.059			-2.059
85800.000			-2.059			-2.059
85900.000			-2.058			-2.058
86001.000			-2.058			-2.058
86100.000			-2.059			-2.059
86200.000			-2.060			-2.060
86302.000			-2.059			-2.059
86401.000			-2.059			-2.059
86500.000			-2.058			-2.058
86601.000			-2.058			-2.058
86700.000			-2.058			-2.058
86800.000			-2.058			-2.058
86901.000			-2.058			-2.058
87000.000			-2.059			-2.059
87101.000			-2.058			-2.058
87202.000			-2.058			-2.058
87300.000			-2.058			-2.058
87400.000			-2.059			-2.059
87501.000			-2.059			-2.059
87600.000			-2.059			-2.059
87700.000			-2.057			-2.057
87801.000			-2.057			-2.057
87901.000			-2.058			-2.058
88001.000			-2.058			-2.058
88101.000			-2.058			-2.058
88200.000			-2.058			-2.058
88300.000			-2.058			-2.058
88400.000			-2.058			-2.058
88500.000			-2.058			-2.058
88601.000			-2.058			-2.058
88701.000			-2.058			-2.058
88801.000			-2.058			-2.058
88902.000			-2.058			-2.058
89000.000			-2.058			-2.058
89100.000			-2.058			-2.058
89201.000			-2.059			-2.059
89300.000			-2.059			-2.059
89400.000			-2.058			-2.058
89501.000			-2.058			-2.058
89601.000			-2.058			-2.058
89701.000			-2.059			-2.059
89801.000			-2.057			-2.057
89900.000			-2.057			-2.057
90000.000			-2.058			-2.058
90101.000			-2.058			-2.058
90200.000			-2.058			-2.058
90300.000			-2.058			-2.058
90402.000			-2.058			-2.058
90501.000			-2.058			-2.058
90600.000			-2.058			-2.058
90701.000			-2.058			-2.058
90800.000			-2.058			-2.058
90900.000			-2.058			-2.058
91001.000			-2.057			-2.057
91100.000			-2.058			-2.058
91201.000			-2.058			-2.058
91302.000			-2.058			-2.058
91400.000			-2.059			-2.059
91500.000			-2.058			-2.058
91600.000			-2.057			-2.057
91700.000			-2.057			-2.057
91801.000			-2.057			-2.057
91900.000			-2.057			-2.057
92001.000			-2.057			-2.057
92102.000			-2.057			-2.057
92200.000			-2.056			-2.056
92300.000			-2.057			-2.057
92401.000			-2.057			-2.057
92500.000			-2.057			-2.057
92600.000			-2.058			-2.058
92701.000			-2.057			-2.057
92801.000			-2.057			-2.057
92901.000			-2.056			-2.056
93001.000			-2.057			-2.057
93100.000			-2.057			-2.057
93200.000			-2.056			-2.056
93301.000			-2.057			-2.057
93400.000			-2.057			-2.057
93500.000			-2.056			-2.056
93602.000			-2.056			-2.056
93701.000			-2.055			-2.055
93800.000			-2.056			-2.056
93901.000			-2.056			-2.056
94000.000			-2.056			-2.056
94100.000			-2.056			-2.056
94201.000			-2.057			-2.057
94300.000			-2.056			-2.056
94401.000			-2.057			-2.057
94502.000			-2.056			-2.056
94600.000			-2.056			-2.056
94700.000			-2.056			-2.056
94800.000			-2.057			-2.057
94900.000			-2.056			-2.056
95001.000			-2.055			-2.055
95100.000			-2.055			-2.055
95201.000			-2.055			-2.055
95302.000			-2.056			-2.056
95400.000			-2.057			-2.057
95500.000			-2.057			-2.057
95601.000			-2.057			-2.057
95700.000			-2.056			-2.056
95800.000			-2.055			-2.055
95901.000			-2.056			-2.056
96001.000			-2.056			-2.056
96101.000			-2.055			-2.055
96201.000			-2.055			-2.055
96300.000			-2.055			-2.055
96400.000			-2.055			-2.055
96501.000			-2.055			-2.055
96600.000			-2.055			-2.055
96700.000			-2.055			-2.055
96802.000			-2.055			-2.055
96901.000			-2.055			-2.055
97000.000			-2.056			-2.056
97101.000			-2.056			-2.056
97200.000			-2.055			-2.055
97300.000			-2.055			-2.055
97401.000			-2.055			-2.055
97500.000			-2.055			-2.055
97601.000			-2.055			-2.055
97702.000			-2.055			-2.055
97800.000			-2.054			-2.054
97900.000			-2.054			-2.054
98000.000			-2.053			-2.053
98100.000			-2.054			-2.054
98201.000			-2.054			-2.054
98300.000			-2.054			-2.054
98401.000			-2.054			-2.054
98502.000			-2.054			-2.054
98600.000			-2.054			-2.054
98700.000			-2.054			-2.054
98801.000			-2.054			-2.054
98900.000			-2.054			-2.054
99000.000			-2.054			-2.054
99101.000			-2.055			-2.055
99201.000			-2.054			-2.054
99301.000			-2.054			-2.054
99401.000			-2.054			-2.054
99500.000			-2.054			-2.054
99600.000			-2.053			-2.053
99701.000			-2.053			-2.053
99800.000			-2.052			-2.052
99900.000			-2.052			-2.052
100002.000			-2.052			-2.052
100101.000			-2.052			-2.052
100200.000			-2.052			-2.052
100301.000			-2.052			-2.052
100400.000			-2.053			-2.053
100500.000			-2.053			-2.053
100601.000			-2.053			-2.053
100700.000			-2.052			-2.052
100801.000			-2.052			-2.052
100902.000			-2.052			-2.052
101000.000			-2.052			-2.052
101100.000			-2.052			-2.052
101200.000			-2.052			-2.052
101300.000			-2.053			-2.053
101401.000			-2.053			-2.053
101500.000			-2.052			-2.052
101601.000			-2.052			-2.052
101702.000			-2.052			-2.052
101800.000			-2.053			-2.053
101900.000			-2.053			-2.053
102001.000			-2.052			-2.052
102100.000			-2.052			-2.052
102200.000			-2.051			-2.051
102301.000			-2.051			-2.051
102401.000			-2.051			-2.051
102501.000			-2.051			-2.051
102601.000			-2.052			-2.052
102700.000			-2.052			-2.052
102800.000			-2.052			-2.052
102901.000			-2.051			-2.051
103000.000			-2.050			-2.050
103100.000			-2.050			-2.050
103202.000			-2.051			-2.051
103301.000			-2.051			-2.051
103400.000			-2.050			-2.050
103501.000			-2.050			-2.050
103600.000			-2.050			-2.050
103700.000			-2.051			-2.051
103801.000			-2.051			-2.051
103900.000			-2.051			-2.051
104001.000			-2.050			-2.050
104102.000			-2.050			-2.050
104200.000			-2.050			-2.050
104300.000			-2.050			-2.050
104400.000			-2.050			-2.050
104500.000			-2.050			-2.050
104601.000			-2.050			-2.050
104700.000			-2.049			-2.049
104801.000			-2.049			-2.049
104902.000			-2.049			-2.049
105000.000			-2.049			-2.049
105100.000			-2.049			-2.049
105201.000			-2.049			-2.049
105300.000			-2.050			-2.050
105400.000			-2.050			-2.050
105501.000			-2.049			-2.049
105601.000			-2.050			-2.050
105701.000			-2.050			-2.050
105801.000			-2.051			-2.051
105900.000			-2.050			-2.050
106000.000			-2.050			-2.050
106101.000			-2.049			-2.049
106200.000			-2.050			-2.050
106300.000			-2.050			-2.050
106402.000			-2.050			-2.050
106501.000			-2.050			-2.050
106600.000			-2.050			-2.050
106701.000			-2.050			-2.050
106800.000			-2.049			-2.049
106900.000			-2.049			-2.049
107001.000			-2.049			-2.049
107100.000			-2.049			-2.049
107200.000			-2.050			-2.050
107302.000			-2.050			-2.050
107401.000			-2.050			-2.050
107500.000			-2.050			-2.050
107600.000			-2.050			-2.050
107700.000			-2.050			-2.050
107801.000			-2.050			-2.050
107900.000			-2.050			-2.050
108000.000			-2.050			-2.050
108102.000			-2.049			-2.049
108201.000			-2.048			-2.048
108300.000			-2.049			-2.049
108401.000			-2.049			-2.049
108500.000			-2.048			-2.048
108600.000			-2.049			-2.049
108701.000			-2.050			-2.050
108800.000			-2.049			-2.049
108901.000			-2.049			-2.049
109002.000			-2.050			-2.050
109100.000			-2.048			-2.048
109200.000			-2.048			-2.048
109301.000			-2.049			-2.049
109400.000			-2.049			-2.049
109500.000			-2.048			-2.048
109601.000			-2.049			-2.049
109701.000			-2.049			-2.049
109801.000			-2.048			-2.048
109901.000			-2.049			-2.049
110000.000			-2.048			-2.048
110100.000			-2.049			-2.049
110201.000			-2.050			-2.050
110300.000			-2.049			-2.049
110400.000			-2.048			-2.048
110502.000			-2.049			-2.049
110601.000			-2.048			-2.048
110702.000			-2.047			-2.047
110800.000			-2.048			-2.048
110900.000			-2.050			-2.050
111001.000			-2.049			-2.049
111100.000			-2.049			-2.049
111200.000			-2.049			-2.049
111301.000			-2.048			-2.048
111401.000			-2.047			-2.047
111501.000			-2.047			-2.047
111601.000			-2.047			-2.047
111700.000			-2.047			-2.047
111800.000			-2.048			-2.048
111901.000			-2.048			-2.048
112000.000			-2.047			-2.047
112100.000			-2.048			-2.048
112202.000			-2.048			-2.048
112301.000			-2.048			-2.048
112400.000			-2.048			-2.048
112501.000			-2.046			-2.046
112600.000			-2.047			-2.047
112700.000			-2.047			-2.047
112801.000			-2.046			-2.046
112900.000			-2.046			-2.046
113001.000			-2.046			-2.046
113102.000			-2.048			-2.048
113200.000			-2.048			-2.048
113300.000			-2.047			-2.047
113401.000			-2.046			-2.046
113500.000			-2.046			-2.046
113600.000			-2.047			-2.047
113701.000			-2.046			-2.046
113801.000			-2.046			-2.046
113902.000			-2.047			-2.047
114000.000			-2.047			-2.047
114100.000			-2.047			-2.047
114201.000			-2.047			-2.047
114300.000			-2.046			-2.046
114400.000			-2.046			-2.046
114501.000			-2.046			-2.046
114601.000			-2.047			-2.047
114701.000			-2.047			-2.047
114801.000			-2.047			-2.047
114900.000			-2.046			-2.046
115000.000			-2.046			-2.046
115101.000			-2.046			-2.046
115200.000			-2.046			-2.046
115300.000			-2.046			-2.046
115402.000			-2.047			-2.047
115501.000			-2.047			-2.047
115600.000			-2.047			-2.047
115701.000			-2.046			-2.046
115800.000			-2.046			-2.046
115900.000			-2.046			-2.046
116001.000			-2.046			-2.046
116100.000			-2.046			-2.046
116201.000			-2.045			-2.045
116302.000			-2.046			-2.046
116401.000			-2.046			-2.046
116500.000			-2.046			-2.046
116601.000			-2.046			-2.046
116700.000			-2.045			-2.045
116800.000			-2.045			-2.045
116901.000			-2.045			-2.045
117001.000			-2.045			-2.045
117102.000			-2.045			-2.045
117201.000			-2.046			-2.046
117300.000			-2.046			-2.046
117401.000			-2.045			-2.045
117500.000			-2.046			-2.046
117600.000			-2.045			-2.045
117701.000			-2.045			-2.045
117800.000			-2.046			-2.046
117901.000			-2.045			-2.045
118002.000			-2.044			-2.044
118100.000			-2.045			-2.045
118200.000			-2.044			-2.044
118301.000			-2.044			-2.044
118400.000			-2.045			-2.045
118500.000			-2.044			-2.044
118601.000			-2.044			-2.044
118701.000			-2.044			-2.044
118801.000			-2.045			-2.045
118901.000			-2.045			-2.045
119000.000			-2.045			-2.045
119100.000			-2.045			-2.045
119201.000			-2.044			-2.044
119300.000			-2.044			-2.044
119400.000			-2.045			-2.045
119502.000			-2.045			-2.045
119601.000			-2.045			-2.045
119700.000			-2.045			-2.045
119801.000			-2.045			-2.045
119900.000			-2.044			-2.044
120000.000			-2.046			-2.046
120101.000			-2.046			-2.046
120200.000			-2.045			-2.045
120302.000			-2.044			-2.044
120401.000			-2.044			-2.044
120500.000			-2.045			-2.045
120601.000			-2.044			-2.044
120700.000			-2.043			-2.043
120800.000			-2.043			-2.043
120901.000			-2.045			-2.045
121000.000			-2.045			-2.045
121101.000			-2.045			-2.045
121202.000			-2.044			-2.044
121300.000			-2.044			-2.044
121400.000			-2.044			-2.044
121501.000			-2.045			-2.045
121600.000			-2.044			-2.044
121700.000			-2.043			-2.043
121801.000			-2.044			-2.044
121901.000			-2.043			-2.043
122001.000			-2.042			-2.042
122101.000			-2.043			-2.043
122200.000			-2.044			-2.044
122300.000			-2.043			-2.043
122401.000			-2.042			-2.042
122500.000			-2.042			-2.042
122600.000			-2.042			-2.042
122702.000			-2.043			-2.043
122801.000			-2.043			-2.043
122900.000			-2.044			-2.044
123001.000			-2.045			-2.045
123100.000			-2.044			-2.044
123200.000			-2.043			-2.043
123301.000			-2.043			-2.043
123401.000			-2.044			-2.044
123502.000			-2.043			-2.043
123601.000			-2.043			-2.043
123700.000			-2.044			-2.044
123801.000			-2.044			-2.044
123900.000			-2.043			-2.043
124000.000			-2.043			-2.043
124101.000			-2.044			-2.044
124200.000			-2.044			-2.044
124301.000			-2.044			-2.044
124402.000			-2.042			-2.042
124500.000			-2.043			-2.043
124600.000			-2.043			-2.043
124701.000			-2.044			-2.044
124800.000			-2.043			-2.043
124900.000			-2.044			-2.044
125001.000			-2.044			-2.044
125101.000			-2.043			-2.043
125201.000			-2.044			-2.044
125301.000			-2.043			-2.043
125400.000			-2.043			-2.043
125500.000			-2.043			-2.043
125601.000			-2.044			-2.044
125700.000			-2.044			-2.044
125800.000			-2.043			-2.043
125902.000			-2.044			-2.044
126001.000			-2.045			-2.045
126100.000			-2.044			-2.044
126201.000			-2.044			-2.044
126300.000			-2.044			-2.044
126400.000			-2.043			-2.043
126501.000			-2.044			-2.044
126600.000			-2.045			-2.045
126702.000			-2.043			-2.043
126801.000			-2.044			-2.044
126900.000			-2.044			-2.044
127001.000			-2.043			-2.043
127100.000			-2.043			-2.043
127200.000			-2.044			-2.044
127301.000			-2.043			-2.043
127400.000			-2.044			-2.044
127501.000			-2.043			-2.043
127602.000			-2.043			-2.043
127700.000			-2.043			-2.043
127800.000			-2.043			-2.043
127901.000			-2.044			-2.044
128000.000			-2.043			-2.043
128100.000			-2.043			-2.043
128201.000			-2.043			-2.043
128301.000			-2.044			-2.044
128401.000			-2.043			-2.043
128501.000			-2.043			-2.043
128600.000			-2.042			-2.042
128700.000			-2.042			-2.042
128801.000			-2.043			-2.043
128900.000			-2.043			-2.043
129000.000			-2.043			-2.043
129101.000			-2.043			-2.043
129201.000			-2.044			-2.044
129301.000			-2.043			-2.043
129401.000			-2.042			-2.042
129500.000			-2.043			-2.043
129600.000			-2.043			-2.043
129701.000			-2.043			-2.043
129800.000			-2.042			-2.042
129900.000			-2.042			-2.042
130002.000			-2.044			-2.044
130101.000			-2.044			-2.044
130201.000			-2.044			-2.044
130300.000			-2.044			-2.044
130400.000			-2.043			-2.043
130501.000			-2.043			-2.043
130600.000			-2.043			-2.043
130700.000			-2.043			-2.043
130802.000			-2.043			-2.043
130901.000			-2.043			-2.043
131000.000			-2.043			-2.043
131101.000			-2.043			-2.043
131200.000			-2.044			-2.044
131300.000			-2.044			-2.044
131401.000			-2.044			-2.044
131500.000			-2.043			-2.043
131601.000			-2.043			-2.043
131702.000			-2.044			-2.044
131800.000			-2.043			-2.043
131900.000			-2.043			-2.043
132001.000			-2.043			-2.043
132100.000			-2.043			-2.043
132200.000			-2.044			-2.044
132301.000			-2.043			-2.043
132401.000			-2.043			-2.043
132501.000			-2.043			-2.043
132602.000			-2.043			-2.043
132700.000			-2.044			-2.044
132800.000			-2.043			-2.043
132901.000			-2.042			-2.042
133000.000			-2.042			-2.042
133100.000			-2.042			-2.042
133200.000			-2.042			-2.042
133301.000			-2.042			-2.042
133402.000			-2.043			-2.043
133500.000			-2.042			-2.042
133600.000			-2.043			-2.043
133701.000			-2.043			-2.043
133800.000			-2.043			-2.043
133900.000			-2.043			-2.043
134001.000			-2.042			-2.042
134100.000			-2.041			-2.041
134201.000			-2.041			-2.041
134302.000			-2.042			-2.042
134400.000			-2.043			-2.043
134500.000			-2.043			-2.043
134601.000			-2.042			-2.042
134700.000			-2.042			-2.042
134800.000			-2.042			-2.042
134901.000			-2.042			-2.042
135001.000			-2.043			-2.043
135101.000			-2.043			-2.043
135202.000			-2.043			-2.043
135300.000			-2.042			-2.042
135400.000			-2.042			-2.042
135501.000			-2.043			-2.043
135600.000			-2.044			-2.044
135700.000			-2.043			-2.043
135801.000			-2.042			-2.042
135901.000			-2.042			-2.042
136001.000			-2.042			-2.042
136101.000			-2.043			-2.043
136200.000			-2.042			-2.042
136300.000			-2.042			-2.042
136400.000			-2.042			-2.042
136500.000			-2.042			-2.042
136601.000			-2.042			-2.042
136700.000			-2.042			-2.042
136801.000			-2.042			-2.042
136902.000			-2.042			-2.042
137001.000			-2.042			-2.042
137100.000			-2.043			-2.043
137201.000			-2.042			-2.042
137300.000			-2.042			-2.042
137400.000			-2.041			-2.041
137501.000			-2.041			-2.041
137600.000			-2.041			-2.041
137701.000			-2.041			-2.041
137802.000			-2.041			-2.041
137900.000			-2.041			-2.041
138000.000			-2.042			-2.042
138101.000			-2.043			-2.043
138200.000			-2.042			-2.042
138300.000			-2.041			-2.041
138401.000			-2.041			-2.041
138500.000			-2.040			-2.040
138601.000			-2.041			-2.041
138702.000			-2.042			-2.042
138800.000			-2.041			-2.041
138900.000			-2.041			-2.041
139001.000			-2.042			-2.042
139100.000			-2.042			-2.042
139200.000			-2.042			-2.042
139301.000			-2.042			-2.042
139400.000			-2.041			-2.041
139502.000			-2.041			-2.041
139601.000			-2.041			-2.041
139700.000			-2.042			-2.042
139801.000			-2.041			-2.041
139900.000			-2.041			-2.041
140000.000			-2.041			-2.041
140101.000			-2.042			-2.042
140200.000			-2.042			-2.042
140300.000			-2.041			-2.041
140402.000			-2.040			-2.040
140501.000			-2.040			-2.040
140600.000			-2.040			-2.040
140701.000			-2.041			-2.041
140800.000			-2.041			-2.041
140900.000			-2.041			-2.041
141001.000			-2.041			-2.041
141100.000			-2.042			-2.042
141201.000			-2.041			-2.041
141302.000			-2.041			-2.041
141400.000			-2.041			-2.041
141500.000			-2.041			-2.041
141601.000			-2.041			-2.041
141700.000			-2.041			-2.041
141800.000			-2.041			-2.041
141901.000			-2.041			-2.041
142000.000			-2.040			-2.040
142101.000			-2.040			-2.040
142202.000			-2.040			-2.040
142300.000			-2.040			-2.040
142400.000			-2.040			-2.040
142501.000			-2.041			-2.041
142600.000			-2.041			-2.041
142700.000			-2.041			-2.041
142800.000			-2.040			-2.040
142900.000			-2.040			-2.040
143002.000			-2.039			-2.039
143101.000			-2.040			-2.040
143200.000			-2.040			-2.040
143301.000			-2.039			-2.039
143400.000			-2.039			-2.039
143500.000			-2.040			-2.040
143601.000			-2.040			-2.040
143700.000			-2.039			-2.039
143801.000			-2.038			-2.038
143902.000			-2.039			-2.039
144001.000			-2.039			-2.039
144100.000			-2.039			-2.039
144201.000			-2.040			-2.040
144300.000			-2.038			-2.038
144400.000			-2.037			-2.037
144501.000			-2.038			-2.038
144600.000			-2.039			-2.039
144701.000			-2.039			-2.039
144802.000			-2.039			-2.039
144901.000			-2.039			-2.039
145000.000			-2.038			-2.038
145101.000			-2.037			-2.037
145200.000			-2.039			-2.039
145300.000			-2.039			-2.039
145401.000			-2.038			-2.038
145500.000			-2.039			-2.039
145601.000			-2.039			-2.039
145702.000			-2.039			-2.039
145800.000			-2.039			-2.039
145900.000			-2.038			-2.038
146000.000			-2.038			-2.038
146100.000			-2.038			-2.038
146201.000			-2.038			-2.038
146300.000			-2.037			-2.037
146400.000			-2.037			-2.037
146502.000			-2.038			-2.038
146601.000			-2.038			-2.038
146701.000			-2.039			-2.039
146801.000			-2.038			-2.038
146900.000			-2.038			-2.038
147000.000			-2.037			-2.037
147101.000			-2.037			-2.037
147200.000			-2.038			-2.038
147300.000			-2.037			-2.037
147402.000			-2.037			-2.037
147501.000			-2.037			-2.037
147600.000			-2.036			-2.036
147701.000			-2.037			-2.037
147800.000			-2.038			-2.038
147900.000			-2.037			-2.037
148001.000			-2.037			-2.037
148100.000			-2.037			-2.037
148200.000			-2.038			-2.038
148302.000			-2.038			-2.038
148401.000			-2.038			-2.038
148501.000			-2.037			-2.037
148601.000			-2.037			-2.037
148700.000			-2.037			-2.037
148800.000			-2.037			-2.037
148901.000			-2.037			-2.037
149000.000			-2.037			-2.037
149100.000			-2.037			-2.037
149202.000			-2.038			-2.038
149301.000			-2.038			-2.038
149402.000			-2.037			-2.037
149500.000			-2.038			-2.038
149600.000			-2.038			-2.038
149701.000			-2.038			-2.038
149800.000			-2.036			-2.036
149900.000			-2.037			-2.037
150001.000			-2.037			-2.037
150101.000			-2.037			-2.037
150201.000			-2.038			-2.038
150302.000			-2.038			-2.038
150400.000			-2.036			-2.036
150500.000			-2.037			-2.037
150601.000			-2.037			-2.037
150700.000			-2.037			-2.037
150800.000			-2.037			-2.037
150901.000			-2.037			-2.037
151001.000			-2.037			-2.037
151101.000			-2.037			-2.037
151201.000			-2.036			-2.036
151300.000			-2.036			-2.036
151400.000			-2.035			-2.035
151501.000			-2.036			-2.036
151600.000			-2.036			-2.036
151700.000			-2.035			-2.035
151801.000			-2.036			-2.036
151901.000			-2.037			-2.037
152001.000			-2.037			-2.037
152101.000			-2.037			-2.037
152200.000			-2.037			-2.037
152300.000			-2.036			-2.036
152400.000			-2.035			-2.035
152500.000			-2.035			-2.035
152601.000			-2.036			-2.036
152700.000			-2.036			-2.036
152801.000			-2.036			-2.036
152902.000			-2.037			-2.037
153000.000			-2.037			-2.037
153100.000			-2.036			-2.036
153201.000			-2.037			-2.037
153300.000			-2.035			-2.035
153400.000			-2.035			-2.035
153501.000			-2.036			-2.036
153600.000			-2.036			-2.036
153701.000			-2.036			-2.036
153802.000			-2.036			-2.036
153900.000			-2.035			-2.035
154000.000			-2.035			-2.035
154101.000			-2.036			-2.036
154200.000			-2.035			-2.035
154300.000			-2.036			-2.036
154401.000			-2.037			-2.037
154500.000			-2.036			-2.036
154601.000			-2.036			-2.036
154702.000			-2.037			-2.037
154800.000			-2.036			-2.036
154900.000			-2.036			-2.036
155001.000			-2.036			-2.036
155100.000			-2.035			-2.035
155200.000			-2.035			-2.035
155301.000			-2.036			-2.036
155400.000			-2.036			-2.036
155502.000			-2.035			-2.035
155601.000			-2.036			-2.036
155700.000			-2.037			-2.037
155801.000			-2.036			-2.036
155900.000			-2.036			-2.036
156000.000			-2.037			-2.037
156101.000			-2.037			-2.037
156200.000			-2.036			-2.036
156300.000			-2.036			-2.036
156402.000			-2.037			-2.037
156501.000			-2.037			-2.037
156600.000			-2.036			-2.036
156701.000			-2.036			-2.036
156800.000			-2.037			-2.037
156900.000			-2.037			-2.037
157001.000			-2.038			-2.038
157100.000			-2.037			-2.037
157200.000			-2.037			-2.037
157302.000			-2.036			-2.036
157401.000			-2.036			-2.036
157500.000			-2.036			-2.036
157601.000			-2.037			-2.037
157700.000			-2.037			-2.037
157800.000			-2.036			-2.036
157901.000			-2.036			-2.036
158000.000			-2.036			-2.036
158100.000			-2.036			-2.036
158202.000			-2.035			-2.035
158301.000			-2.037			-2.037
158400.000			-2.036			-2.036
158501.000			-2.036			-2.036
158600.000			-2.036			-2.036
158700.000			-2.035			-2.035
158800.000			-2.035			-2.035
158900.000			-2.036			-2.036
159001.000			-2.036			-2.036
159101.000			-2.035			-2.035
159201.000			-2.035			-2.035
159301.000			-2.035			-2.035
159400.000			-2.035			-2.035
159500.000			-2.036			-2.036
159601.000			-2.036			-2.036
159700.000			-2.035			-2.035
159800.000			-2.036			-2.036
159901.000			-2.035			-2.035
160001.000			-2.035			-2.035
160101.000			-2.035			-2.035
160201.000			-2.035			-2.035
160300.000			-2.034			-2.034
160400.000			-2.034			-2.034
160501.000			-2.034			-2.034
160600.000			-2.035			-2.035
160700.000			-2.035			-2.035
160801.000			-2.034			-2.034
160901.000			-2.033			-2.033
161001.000			-2.035			-2.035
161101.000			-2.036			-2.036
161200.000			-2.035			-2.035
161300.000			-2.034			-2.034
161401.000			-2.035			-2.035
161500.000			-2.035			-2.035
161600.000			-2.034			-2.034
161702.000			-2.033			-2.033
161801.000			-2.033			-2.033
161902.000			-2.034			-2.034
162000.000			-2.033			-2.033
162100.000			-2.033			-2.033
162201.000			-2.034			-2.034
162300.000			-2.033			-2.033
162400.000			-2.033			-2.033
162501.000			-2.032			-2.032
162601.000			-2.033			-2.033
162701.000			-2.032			-2.032
162801.000			-2.032			-2.032
162900.000			-2.033			-2.033
163000.000			-2.032			-2.032
163101.000			-2.032			-2.032
163200.000			-2.031			-2.031
163300.000			-2.032			-2.032
163401.000			-2.032			-2.032
163501.000			-2.032			-2.032
163601.000			-2.032			-2.032
163701.000			-2.032			-2.032
163800.000			-2.032			-2.032
163900.000			-2.033			-2.033
164001.000			-2.033			-2.033
164100.000			-2.033			-2.033
164200.000			-2.033			-2.033
164301.000			-2.033			-2.033
164401.000			-2.033			-2.033
164501.000			-2.033			-2.033
164601.000			-2.032			-2.032
164700.000			-2.031			-2.031
164800.000			-2.033			-2.033
164901.000			-2.032			-2.032
165000.000			-2.032			-2.032
165100.000			-2.032			-2.032
165202.000			-2.032			-2.032
165301.000			-2.032			-2.032
165402.000			-2.033			-2.033
165500.000			-2.031			-2.031
165600.000			-2.032			-2.032
165701.000			-2.033			-2.033
165800.000			-2.033			-2.033
165900.000			-2.032			-2.032
166001.000			-2.033			-2.033
166101.000			-2.033			-2.033
166201.000			-2.032			-2.032
166302.000			-2.033			-2.033
166400.000			-2.033			-2.033
166500.000			-2.032			-2.032
166601.000			-2.032			-2.032
166700.000			-2.032			-2.032
166800.000			-2.033			-2.033
166901.000			-2.032			-2.032
167001.000			-2.033			-2.033
167101.000			-2.033			-2.033
167202.000			-2.032			-2.032
167300.000			-2.033			-2.033
167400.000			-2.033			-2.033
167501.000			-2.033			-2.033
167600.000			-2.033			-2.033
167700.000			-2.033			-2.033
167801.000			-2.033			-2.033
167901.000			-2.033			-2.033
168001.000			-2.032			-2.032
168102.000			-2.032			-2.032
168200.000			-2.032			-2.032
168300.000			-2.033			-2.033
168400.000			-2.033			-2.033
168500.000			-2.032			-2.032
168601.000			-2.032			-2.032
168700.000			-2.032			-2.032
168801.000			-2.032			-2.032
168902.000			-2.032			-2.032
169001.000			-2.031			-2.031
169100.000			-2.031			-2.031
169201.000			-2.031			-2.031
169300.000			-2.032			-2.032
169400.000			-2.031			-2.031
169501.000			-2.031			-2.031
169600.000			-2.031			-2.031
169701.000			-2.032			-2.032
169802.000			-2.031			-2.031
169901.000			-2.030			-2.030
170000.000			-2.031			-2.031
170101.000			-2.031			-2.031
170200.000			-2.031			-2.031
170300.000			-2.030			-2.030
170401.000			-2.029			-2.029
170500.000			-2.030			-2.030
170601.000			-2.031			-2.031
170702.000			-2.031			-2.031
170800.000			-2.031			-2.031
170900.000			-2.031			-2.031
171001.000			-2.031			-2.031
171100.000			-2.031			-2.031
171200.000			-2.030			-2.030
171301.000			-2.031			-2.031
171401.000			-2.030			-2.030
171502.000			-2.031			-2.031
171601.000			-2.031			-2.031
171700.000			-2.030			-2.030
171801.000			-2.031			-2.031
171900.000			-2.032			-2.032
172000.000			-2.032			-2.032
172101.000			-2.031			-2.031
172200.000			-2.031			-2.031
172301.000			-2.031			-2.031
172402.000			-2.031			-2.031
172501.000			-2.031			-2.031
172600.000			-2.031			-2.031
172701.000			-2.031			-2.031
172800.000			-2.032			-2.032
172900.000			-2.031			-2.031
173001.000			-2.031			-2.031
173100.000			-2.032			-2.032
173201.000			-2.031			-2.031
173302.000			-2.030			-2.030
173400.000			-2.031			-2.031
173500.000			-2.031			-2.031
173601.000			-2.032			-2.032
173700.000			-2.032			-2.032
173800.000			-2.031			-2.031
173901.000			-2.031			-2.031
174000.000			-2.031			-2.031
174101.000			-2.030			-2.030
174202.000			-2.031			-2.031
174300.000			-2.031			-2.031
174400.000			-2.031			-2.031
174501.000			-2.030			-2.030
174600.000			-2.030			-2.030
174700.000			-2.030			-2.030
174800.000			-2.030			-2.030
174900.000			-2.031			-2.031
175002.000			-2.031			-2.031
175101.000			-2.031			-2.031
175200.000			-2.031			-2.031
175301.000			-2.031			-2.031
175400.000			-2.031			-2.031
175500.000			-2.031			-2.031
175601.000			-2.030			-2.030
175700.000			-2.030			-2.030
175800.000			-2.031			-2.031
175902.000			-2.031			-2.031
176001.000			-2.031			-2.031
176100.000			-2.031			-2.031
176201.000			-2.030			-2.030
176300.000			-2.030			-2.030
176400.000			-2.031			-2.031
176501.000			-2.033			-2.033
176600.000			-2.031			-2.031
176701.000			-2.030			-2.030
176802.000			-2.031			-2.031
176901.000			-2.031			-2.031
177000.000			-2.030			-2.030
177101.000			-2.030			-2.030
177200.000			-2.031			-2.031
177300.000			-2.031			-2.031
177401.000			-2.030			-2.030
177500.000			-2.030			-2.030
177601.000			-2.031			-2.031
177702.000			-2.031			-2.031
177801.000			-2.031			-2.031
177900.000			-2.031			-2.031
178000.000			-2.031			-2.031
178100.000			-2.031			-2.031
178201.000			-2.031			-2.031
178300.000			-2.031			-2.031
178400.000			-2.031			-2.031
178502.000			-2.032			-2.032
178601.000			-2.032			-2.032
178701.000			-2.030			-2.030
178801.000			-2.031			-2.031
178900.000			-2.032			-2.032
179000.000			-2.032			-2.032
179101.000			-2.031			-2.031
179200.000			-2.030			-2.030
179300.000			-2.032			-2.032
179402.000			-2.032			-2.032
179501.000			-2.031			-2.031
179601.000			-2.030			-2.030
179701.000			-2.031			-2.031
179800.000			-2.031			-2.031
179900.000			-2.031			-2.031
180001.000			-2.031			-2.031
180100.000			-2.031			-2.031
180200.000			-2.032			-2.032
180302.000			-2.031			-2.031
180401.000			-2.031			-2.031
180501.000			-2.032			-2.032
180601.000			-2.031			-2.031
180700.000			-2.031			-2.031
180800.000			-2.031			-2.031
180901.000			-2.031			-2.031
181000.000			-2.032			-2.032
181100.000			-2.032			-2.032
181202.000			-2.031			-2.031
181301.000			-2.031			-2.031
181401.000			-2.031			-2.031
181500.000			-2.032			-2.032
181600.000			-2.032			-2.032
181701.000			-2.032			-2.032
181800.000			-2.033			-2.033
181900.000			-2.032			-2.032
182001.000			-2.031			-2.031
182101.000			-2.031			-2.031
182201.000			-2.032			-2.032
182301.000			-2.031			-2.031
182400.000			-2.031			-2.031
182500.000			-2.031			-2.031
182601.000			-2.031			-2.031
182700.000			-2.031			-2.031
182800.000			-2.030			-2.030
182902.000			-2.030			-2.030
183001.000			-2.030			-2.030
183101.000			-2.030			-2.030
183201.000			-2.031			-2.031
183300.000			-2.032			-2.032
183400.000			-2.031			-2.031
183501.000			-2.030			-2.030
183600.000			-2.031			-2.031
183700.000			-2.031			-2.031
183802.000			-2.031			-2.031
183901.000			-2.031			-2.031
184000.000			-2.031			-2.031
184101.000			-2.031			-2.031
184200.000			-2.030			-2.030
184300.000			-2.030			-2.030
184400.000			-2.030			-2.030
184500.000			-2.030			-2.030
184601.000			-2.031			-2.031
184701.000			-2.031			-2.031
184801.000			-2.031			-2.031
184901.000			-2.031			-2.031
185000.000			-2.031			-2.031
185100.000			-2.030			-2.030
185201.000			-2.031			-2.031
185300.000			-2.031			-2.031
185400.000			-2.031			-2.031
185502.000			-2.030			-2.030
185601.000			-2.030			-2.030
185701.000			-2.030			-2.030
185801.000			-2.030			-2.030
185900.000			-2.030			-2.030
186000.000			-2.030			-2.030
186101.000			-2.031			-2.031
186200.000			-2.031			-2.031
186300.000			-2.030			-2.030
186402.000			-2.030			-2.030
186501.000			-2.030			-2.030
186601.000			-2.029			-2.029
186701.000			-2.029			-2.029
186800.000			-2.030			-2.030
186900.000			-2.030			-2.030
187001.000			-2.030			-2.030
187100.000			-2.030			-2.030
187200.000			-2.029			-2.029
187302.000			-2.029			-2.029
187401.000			-2.030			-2.030
187502.000			-2.029			-2.029
187600.000			-2.030			-2.030
187700.000			-2.030			-2.030
187801.000			-2.029			-2.029
187900.000			-2.030			-2.030
188000.000			-2.030			-2.030
188101.000			-2.030			-2.030
188200.000			-2.030			-2.030
188301.000			-2.029			-2.029
188402.000			-2.029			-2.029
188500.000			-2.029			-2.029
188600.000			-2.029			-2.029
188701.000			-2.030			-2.030
188800.000			-2.030			-2.030
188900.000			-2.031			-2.031
189001.000			-2.030			-2.030
189100.000			-2.030			-2.030
189201.000			-2.030			-2.030
189302.000			-2.029			-2.029
189400.000			-2.029			-2.029
189500.000			-2.029			-2.029
189601.000			-2.028			-2.028
189700.000			-2.028			-2.028
189800.000			-2.028			-2.028
189901.000			-2.027			-2.027
190000.000			-2.027			-2.027
190101.000			-2.028			-2.028
190202.000			-2.028			-2.028
190301.000			-2.028			-2.028
190400.000			-2.027			-2.027
190501.000			-2.029			-2.029
190600.000			-2.029			-2.029
190700.000			-2.029			-2.029
190800.000			-2.028			-2.028
190900.000			-2.028			-2.028
191002.000			-2.027			-2.027
191101.000			-2.028			-2.028
191201.000			-2.028			-2.028
191301.000			-2.029			-2.029
191400.000			-2.029			-2.029
191500.000			-2.028			-2.028
191601.000			-2.028			-2.028
191700.000			-2.028			-2.028
191800.000			-2.028			-2.028
191902.000			-2.028			-2.028
192001.000			-2.029			-2.029
192101.000			-2.028			-2.028
192201.000			-2.028			-2.028
192300.000			-2.027			-2.027
192400.000			-2.026			-2.026
192501.000			-2.026			-2.026
192600.000			-2.027			-2.027
192700.000			-2.028			-2.028
192802.000			-2.028			-2.028
192901.000			-2.027			-2.027
193001.000			-2.027			-2.027
193101.000			-2.027			-2.027
193200.000			-2.027			-2.027
193300.000			-2.027			-2.027
193401.000			-2.028			-2.028
193500.000			-2.028			-2.028
193600.000			-2.027			-2.027
193702.000			-2.028			-2.028
193801.000			-2.028			-2.028
193902.000			-2.027			-2.027
194000.000			-2.028			-2.028
194100.000			-2.027			-2.027
194201.000			-2.028			-2.028
194300.000			-2.027			-2.027
194400.000			-2.028			-2.028
194501.000			-2.028			-2.028
194601.000			-2.028			-2.028
194701.000			-2.028			-2.028
194802.000			-2.027			-2.027
194900.000			-2.027			-2.027
195000.000			-2.028			-2.028
195101.000			-2.027			-2.027
195200.000			-2.027			-2.027
195300.000			-2.027			-2.027
195401.000			-2.028			-2.028
195500.000			-2.027			-2.027
195601.000			-2.028			-2.028
195702.000			-2.028			-2.028
195800.000			-2.028			-2.028
195900.000			-2.028			-2.028
196001.000			-2.029			-2.029
196100.000			-2.027			-2.027
196200.000			-2.028			-2.028
196301.000			-2.027			-2.027
196400.000			-2.027			-2.027
196501.000			-2.028			-2.028
196602.000			-2.028			-2.028
196701.000			-2.027			-2.027
196800.000			-2.027			-2.027
196901.000			-2.028			-2.028
197000.000			-2.027			-2.027
197100.000			-2.026			-2.026
197200.000			-2.028			-2.028
197300.000			-2.028			-2.028
197402.000			-2.027			-2.027
197501.000			-2.027			-2.027
197601.000			-2.027			-2.027
197701.000			-2.027			-2.027
197800.000			-2.028			-2.028
197900.000			-2.028			-2.028
198001.000			-2.028			-2.028
198100.000			-2.026			-2.026
198200.000			-2.025			-2.025
198302.000			-2.025			-2.025
198401.000			-2.025			-2.025
198501.000			-2.027			-2.027
198601.000			-2.026			-2.026
198700.000			-2.025			-2.025
198800.000			-2.025			-2.025
198901.000			-2.026			-2.026
199000.000			-2.026			-2.026
199100.000			-2.026			-2.026
199201.000			-2.026			-2.026
199301.000			-2.025			-2.025
199401.000			-2.024			-2.024
199501.000			-2.024			-2.024
199600.000			-2.025			-2.025
199700.000			-2.026			-2.026
199801.000			-2.025			-2.025
199900.000			-2.024			-2.024
200000.000			-2.024			-2.024
200101.000			-2.025			-2.025
200201.000			-2.025			-2.025
200302.000			-2.025			-2.025
200400.000			-2.025			-2.025
200500.000			-2.025			-2.025
200601.000			-2.024			-2.024
200700.000			-2.024			-2.024
200800.000			-2.025			-2.025
200901.000			-2.025			-2.025
201001.000			-2.026			-2.026
201101.000			-2.025			-2.025
201201.000			-2.024			-2.024
201300.000			-2.025			-2.025
201400.000			-2.025			-2.025
201501.000			-2.024			-2.024
201600.000			-2.024			-2.024
201700.000			-2.025			-2.025
201801.000			-2.024			-2.024
201901.000			-2.024			-2.024
202001.000			-2.024			-2.024
202101.000			-2.024			-2.024
202200.000			-2.024			-2.024
202300.000			-2.024			-2.024
202401.000			-2.024			-2.024
202500.000			-2.024			-2.024
202600.000			-2.024			-2.024
202702.000			-2.024			-2.024
202801.000			-2.024			-2.024
202900.000			-2.025			-2.025
203001.000			-2.025			-2.025
203100.000			-2.025			-2.025
203200.000			-2.024			-2.024
203301.000			-2.025			-2.025
203400.000			-2.025			-2.025
203500.000			-2.025			-2.025
203602.000			-2.025			-2.025
203701.000			-2.025			-2.025
203801.000			-2.026			-2.026
203900.000			-2.025			-2.025
204000.000			-2.025			-2.025
204101.000			-2.025			-2.025
204200.000			-2.025			-2.025
204300.000			-2.025			-2.025
204402.000			-2.025			-2.025
204501.000			-2.025			-2.025
204601.000			-2.024			-2.024
204701.000			-2.025			-2.025
204800.000			-2.025			-2.025
204900.000			-2.025			-2.025
205001.000			-2.025			-2.025
205100.000			-2.026			-2.026
205200.000			-2.023			-2.023
205302.000			-2.024			-2.024
205401.000			-2.024			-2.024
205500.000			-2.024			-2.024
205601.000			-2.024			-2.024
205700.000			-2.023			-2.023
205800.000			-2.025			-2.025
205901.000			-2.025			-2.025
206000.000			-2.025			-2.025
206100.000			-2.024			-2.024
206202.000			-2.024			-2.024
206301.000			-2.024			-2.024
206400.000			-2.024			-2.024
206501.000			-2.023			-2.023
206600.000			-2.024			-2.024
206700.000			-2.023			-2.023
206800.000			-2.024			-2.024
206900.000			-2.024			-2.024
207001.000			-2.023			-2.023
207101.000			-2.023			-2.023
207201.000			-2.023			-2.023
207301.000			-2.022			-2.022
207400.000			-2.022			-2.022
207500.000			-2.023			-2.023
207601.000			-2.022			-2.022
207700.000			-2.023			-2.023
207800.000			-2.024			-2.024
207902.000			-2.025			-2.025
208001.000			-2.022			-2.022
208101.000			-2.022			-2.022
208201.000			-2.023			-2.023
208300.000			-2.023			-2.023
208400.000			-2.022			-2.022
208501.000			-2.022			-2.022
208600.000			-2.022			-2.022
208700.000			-2.023			-2.023
208802.000			-2.023			-2.023
208901.000			-2.023			-2.023
209000.000			-2.023			-2.023
209101.000			-2.023			-2.023
209200.000			-2.023			-2.023
209300.000			-2.023			-2.023
209401.000			-2.023			-2.023
209500.000			-2.023			-2.023
209600.000			-2.024			-2.024
209702.000			-2.023			-2.023
209801.000			-2.022			-2.022
209900.000			-2.023			-2.023
210000.000			-2.024			-2.024
210100.000			-2.023			-2.023
210201.000			-2.023			-2.023
210300.000			-2.024			-2.024
210400.000			-2.025			-2.025
210502.000			-2.024			-2.024
210601.000			-2.024			-2.024
210701.000			-2.024			-2.024
210801.000			-2.023			-2.023
210900.000			-2.024			-2.024
211000.000			-2.025			-2.025
211101.000			-2.025			-2.025
211200.000			-2.025			-2.025
211300.000			-2.024			-2.024
211402.000			-2.024			-2.024
211501.000			-2.023			-2.023
211600.000			-2.024			-2.024
211701.000			-2.024			-2.024
211800.000			-2.023			-2.023
211900.000			-2.023			-2.023
212001.000			-2.023			-2.023
212100.000			-2.024			-2.024
212201.000			-2.024			-2.024
212302.000			-2.023			-2.023
212401.000			-2.022			-2.022
212500.000			-2.023			-2.023
212601.000			-2.024			-2.024
212700.000			-2.022			-2.022
212800.000			-2.022			-2.022
212901.000			-2.022			-2.022
213000.000			-2.022			-2.022
213102.000			-2.021			-2.021
213201.000			-2.022			-2.022
213300.000			-2.022			-2.022
213401.000			-2.021			-2.021
213500.000			-2.021			-2.021
213600.000			-2.021			-2.021
213701.000			-2.023			-2.023
213800.000			-2.023			-2.023
213901.000			-2.021			-2.021
214002.000			-2.022			-2.022
214101.000			-2.021			-2.021
214200.000			-2.020			-2.020
214301.000			-2.021			-2.021
214400.000			-2.022			-2.022
214500.000			-2.022			-2.022
214601.000			-2.021			-2.021
214700.000			-2.021			-2.021
214801.000			-2.022			-2.022
214902.000			-2.021			-2.021
215000.000			-2.021			-2.021
215100.000			-2.020			-2.020
215201.000			-2.022			-2.022
215300.000			-2.022			-2.022
215400.000			-2.020			-2.020
215501.000			-2.019			-2.019
215601.000			-2.020			-2.020
215701.000			-2.021			-2.021
215802.000			-2.020			-2.020
215900.000			-2.020			-2.020
216000.000			-2.021			-2.021
216101.000			-2.020			-2.020
216200.000			-2.020			-2.020
216300.000			-2.020			-2.020
216400.000			-2.019			-2.019
216501.000			-2.019			-2.019
216602.000			-2.020			-2.020
216701.000			-2.021			-2.021
216800.000			-2.019			-2.019
216901.000			-2.020			-2.020
217000.000			-2.019			-2.019
217100.000			-2.019			-2.019
217201.000			-2.020			-2.020
217300.000			-2.021			-2.021
217401.000			-2.020			-2.020
217502.000			-2.021			-2.021
217600.000			-2.020			-2.020
217700.000			-2.020			-2.020
217801.000			-2.021			-2.021
217900.000			-2.021			-2.021
218000.000			-2.021			-2.021
218101.000			-2.021			-2.021
218200.000			-2.020			-2.020
218301.000			-2.021			-2.021
218402.000			-2.020			-2.020
218500.000			-2.021			-2.021
218600.000			-2.020			-2.020
218701.000			-2.021			-2.021
218800.000			-2.021			-2.021
218900.000			-2.021			-2.021
219001.000			-2.021			-2.021
219101.000			-2.021			-2.021
219201.000			-2.020			-2.020
219302.000			-2.021			-2.021
219400.000			-2.020			-2.020
219500.000			-2.021			-2.021
219600.000			-2.020			-2.020
219700.000			-2.020			-2.020
219801.000			-2.021			-2.021
219900.000			-2.021			-2.021
220001.000			-2.020			-2.020
220102.000			-2.020			-2.020
220201.000			-2.019			-2.019
220300.000			-2.020			-2.020
220401.000			-2.022			-2.022
220500.000			-2.021			-2.021
220600.000			-2.021			-2.021
220701.000			-2.021			-2.021
220800.000			-2.021			-2.021
220901.000			-2.021			-2.021
221002.000			-2.021			-2.021
221100.000			-2.021			-2.021
221200.000			-2.020			-2.020
221301.000			-2.021			-2.021
221400.000			-2.020			-2.020
221500.000			-2.021			-2.021
221601.000			-2.022			-2.022
221701.000			-2.022			-2.022
221801.000			-2.021			-2.021
221901.000			-2.020			-2.020
222000.000			-2.021			-2.021
222100.000			-2.021			-2.021
222201.000			-2.022			-2.022
222300.000			-2.022			-2.022
222400.000			-2.021			-2.021
222501.000			-2.022			-2.022
222601.000			-2.022			-2.022
222702.000			-2.022			-2.022
222800.000			-2.022			-2.022
222900.000			-2.021			-2.021
223001.000			-2.021			-2.021
223100.000			-2.022			-2.022
223200.000			-2.021			-2.021
223301.000			-2.020			-2.020
223401.000			-2.022			-2.022
223501.000			-2.021			-2.021
223602.000			-2.020			-2.020
223700.000			-2.020			-2.020
223800.000			-2.021			-2.021
223901.000			-2.020			-2.020
224000.000			-2.020			-2.020
224100.000			-2.021			-2.021
224201.000			-2.020			-2.020
224301.000			-2.020			-2.020
224401.000			-2.020			-2.020
224501.000			-2.020			-2.020
224600.000			-2.020			-2.020
224700.000			-2.021			-2.021
224801.000			-2.020			-2.020
224900.000			-2.020			-2.020
225000.000			-2.020			-2.020
225102.000			-2.020			-2.020
225201.000			-2.020			-2.020
225300.000			-2.020			-2.020
225401.000			-2.020			-2.020
225500.000			-2.020			-2.020
225600.000			-2.020			-2.020
225701.000			-2.020			-2.020
225800.000			-2.019			-2.019
225900.000			-2.019			-2.019
226002.000			-2.019			-2.019
226101.000			-2.019			-2.019
226201.000			-2.020			-2.020
226300.000			-2.020			-2.020
226400.000			-2.020			-2.020
226501.000			-2.020			-2.020
226600.000			-2.020			-2.020
226700.000			-2.020			-2.020
226801.000			-2.021			-2.021
226901.000			-2.020			-2.020
227001.000			-2.020			-2.020
227101.000			-2.020			-2.020
227200.000			-2.020			-2.020
227300.000			-2.019			-2.019
227401.000			-2.019			-2.019
227500.000			-2.019			-2.019
227600.000			-2.019			-2.019
227701.000			-2.019			-2.019
227801.000			-2.018			-2.018
227901.000			-2.019			-2.019
228001.000			-2.020			-2.020
228100.000			-2.020			-2.020
228200.000			-2.019			-2.019
228301.000			-2.019			-2.019
228400.000			-2.018			-2.018
228500.000			-2.018			-2.018
228601.000			-2.019			-2.019
228701.000			-2.019			-2.019
228801.000			-2.019			-2.019
228901.000			-2.019			-2.019
229000.000			-2.019			-2.019
229100.000			-2.019			-2.019
229200.000			-2.020			-2.020
229300.000			-2.019			-2.019
229401.000			-2.020			-2.020
229500.000			-2.019			-2.019
229601.000			-2.018			-2.018
229702.000			-2.018			-2.018
229801.000			-2.019			-2.019
229900.000			-2.019			-2.019
230001.000			-2.019			-2.019
230100.000			-2.020			-2.020
230200.000			-2.020			-2.020
230301.000			-2.020			-2.020
230400.000			-2.019			-2.019
230501.000			-2.019			-2.019
230602.000			-2.019			-2.019
230700.000			-2.020			-2.020
230800.000			-2.019			-2.019
230901.000			-2.019			-2.019
231000.000			-2.020			-2.020
231100.000			-2.020			-2.020
231201.000			-2.020			-2.020
231300.000			-2.019			-2.019
231401.000			-2.019			-2.019
231502.000			-2.019			-2.019
231600.000			-2.019			-2.019
231700.000			-2.019			-2.019
231801.000			-2.019			-2.019
231900.000			-2.020			-2.020
232000.000			-2.019			-2.019
232101.000			-2.019			-2.019
232201.000			-2.019			-2.019
232302.000			-2.019			-2.019
232401.000			-2.019			-2.019
232500.000			-2.019			-2.019
232601.000			-2.019			-2.019
232700.000			-2.020			-2.020
232800.000			-2.019			-2.019
232901.000			-2.018			-2.018
233000.000			-2.018			-2.018
233100.000			-2.018			-2.018
233202.000			-2.018			-2.018
233301.000			-2.019			-2.019
233400.000			-2.020			-2.020
233501.000			-2.020			-2.020
233600.000			-2.020			-2.020
233700.000			-2.019			-2.019
233801.000			-2.019			-2.019
233900.000			-2.019			-2.019
234000.000			-2.019			-2.019
234102.000			-2.019			-2.019
234201.000			-2.019			-2.019
234300.000			-2.019			-2.019
234401.000			-2.020			-2.020
234500.000			-2.020			-2.020
234600.000			-2.020			-2.020
234701.000			-2.020			-2.020
234800.000			-2.020			-2.020
234901.000			-2.020			-2.020
235002.000			-2.020			-2.020
235101.000			-2.019			-2.019
235200.000			-2.019			-2.019
235301.000			-2.020			-2.020
235400.000			-2.020			-2.020
235500.000			-2.019			-2.019
235600.000			-2.019			-2.019
235700.000			-2.019			-2.019
235802.000			-2.018			-2.018
235901.000			-2.019			-2.019
236001.000			-2.019			-2.019
236101.000			-2.019			-2.019
236200.000			-2.020			-2.020
236300.000			-2.020			-2.020
236401.000			-2.021			-2.021
236500.000			-2.020			-2.020
236600.000			-2.020			-2.020
236702.000			-2.021			-2.021
236801.000			-2.021			-2.021
236900.000			-2.020			-2.020
237001.000			-2.019			-2.019
237100.000			-2.019			-2.019
237200.000			-2.019			-2.019
237301.000			-2.019			-2.019
237400.000			-2.018			-2.018
237500.000			-2.019			-2.019
237602.000			-2.019			-2.019
237701.000			-2.018			-2.018
237801.000			-2.019			-2.019
237901.000			-2.019			-2.019
238000.000			-2.020			-2.020
238100.000			-2.020			-2.020
238201.000			-2.019			-2.019
238300.000			-2.019			-2.019
238400.000			-2.019			-2.019
238502.000			-2.019			-2.019
238601.000			-2.019			-2.019
238702.000			-2.019			-2.019
238800.000			-2.019			-2.019
238900.000			-2.019			-2.019
239001.000			-2.020			-2.020
239100.000			-2.020			-2.020
239200.000			-2.019			-2.019
239301.000			-2.019			-2.019
239401.000			-2.019			-2.019
239501.000			-2.019			-2.019
239602.000			-2.019			-2.019
239700.000			-2.019			-2.019
239800.000			-2.020			-2.020
239901.000			-2.019			-2.019
240000.000			-2.019			-2.019
240100.000			-2.019			-2.019
240201.000			-2.019			-2.019
240301.000			-2.018			-2.018
240401.000			-2.018			-2.018
240502.000			-2.020			-2.020
240600.000			-2.020			-2.020
240700.000			-2.020			-2.020
240801.000			-2.020			-2.020
240900.000			-2.020			-2.020
241000.000			-2.020			-2.020
241101.000			-2.020			-2.020
241201.000			-2.019			-2.019
241301.000			-2.019			-2.019
241401.000			-2.019			-2.019
241500.000			-2.019			-2.019
241600.000			-2.020			-2.020
241701.000			-2.020			-2.020
241800.000			-2.020			-2.020
241900.000			-2.020			-2.020
242000.000			-2.019			-2.019
242101.000			-2.020			-2.020
242202.000			-2.021			-2.021
242300.000			-2.021			-2.021
242400.000			-2.019			-2.019
242501.000			-2.020			-2.020
242600.000			-2.020			-2.020
242700.000			-2.021			-2.021
242801.000			-2.021			-2.021
242900.000			-2.020			-2.020
243001.000			-2.019			-2.019
243102.000			-2.019			-2.019
243200.000			-2.019			-2.019
243300.000			-2.019			-2.019
243401.000			-2.020			-2.020
243500.000			-2.018			-2.018
243600.000			-2.019			-2.019
243701.000			-2.020			-2.020
243801.000			-2.020			-2.020
243901.000			-2.020			-2.020
244002.000			-2.019			-2.019
244100.000			-2.019			-2.019
244200.000			-2.019			-2.019
244301.000			-2.019			-2.019
244400.000			-2.018			-2.018
244500.000			-2.019			-2.019
244601.000			-2.018			-2.018
244701.000			-2.018			-2.018
244801.000			-2.019			-2.019
244902.000			-2.019			-2.019
245000.000			-2.019			-2.019
245100.000			-2.019			-2.019
245200.000			-2.018			-2.018
245300.000			-2.018			-2.018
245401.000			-2.019			-2.019
245500.000			-2.020			-2.020
245601.000			-2.019			-2.019
245702.000			-2.019			-2.019
245801.000			-2.020			-2.020
245900.000			-2.020			-2.020
246001.000			-2.019			-2.019
246100.000			-2.020			-2.020
246200.000			-2.019			-2.019
246301.000			-2.020			-2.020
246400.000			-2.020			-2.020
246501.000			-2.018			-2.018
246602.000			-2.019			-2.019
246701.000			-2.019			-2.019
246800.000			-2.018			-2.018
246901.000			-2.018			-2.018
247000.000			-2.018			-2.018
247100.000			-2.019			-2.019
247201.000			-2.019			-2.019
247300.000			-2.019			-2.019
247400.000			-2.019			-2.019
247502.000			-2.018			-2.018
247601.000			-2.018			-2.018
247700.000			-2.018			-2.018
247801.000			-2.018			-2.018
247900.000			-2.018			-2.018
248000.000			-2.017			-2.017
248101.000			-2.017			-2.017
248200.000			-2.016			-2.016
248300.000			-2.017			-2.017
248402.000			-2.017			-2.017
248501.000			-2.017			-2.017
248601.000			-2.018			-2.018
248700.000			-2.017			-2.017
248800.000			-2.018			-2.018
248901.000			-2.018			-2.018
249000.000			-2.018			-2.018
249100.000			-2.017			-2.017
249201.000			-2.017			-2.017
249301.000			-2.017			-2.017
249401.000			-2.016			-2.016
249501.000			-2.017			-2.017
249600.000			-2.017			-2.017
249700.000			-2.017			-2.017
249801.000			-2.019			-2.019
249900.000			-2.019			-2.019
250000.000			-2.018			-2.018
250101.000			-2.018			-2.018
250201.000			-2.018			-2.018
250301.000			-2.018			-2.018
250401.000			-2.017			-2.017
250500.000			-2.017			-2.017
250600.000			-2.018			-2.018
250701.000			-2.018			-2.018
250800.000			-2.018			-2.018
250900.000			-2.018			-2.018
251001.000			-2.018			-2.018
251101.000			-2.018			-2.018
251201.000			-2.018			-2.018
251301.000			-2.017			-2.017
251400.000			-2.017			-2.017
251500.000			-2.018			-2.018
251600.000			-2.017			-2.017
251700.000			-2.016			-2.016
251801.000			-2.017			-2.017
251901.000			-2.018			-2.018
252001.000			-2.018			-2.018
252102.000			-2.017			-2.017
252200.000			-2.017			-2.017
252300.000			-2.016			-2.016
252401.000			-2.017			-2.017
252500.000			-2.017			-2.017
252600.000			-2.016			-2.016
252701.000			-2.017			-2.017
252801.000			-2.017			-2.017
252901.000			-2.017			-2.017
253001.000			-2.018			-2.018
253100.000			-2.017			-2.017
253200.000			-2.016			-2.016
253301.000			-2.017			-2.017
253400.000			-2.017			-2.017
253500.000			-2.018			-2.018
253601.000			-2.017			-2.017
253701.000			-2.017			-2.017
253801.000			-2.017			-2.017
253901.000			-2.016			-2.016
254000.000			-2.016			-2.016
254100.000			-2.016			-2.016
254201.000			-2.016			-2.016
254300.000			-2.016			-2.016
254400.000			-2.016			-2.016
254501.000			-2.015			-2.015
254601.000			-2.015			-2.015
254702.000			-2.016			-2.016
254800.000			-2.017			-2.017
254900.000			-2.016			-2.016
255001.000			-2.017			-2.017
255100.000			-2.017			-2.017
255200.000			-2.016			-2.016
255301.000			-2.017			-2.017
255401.000			-2.017			-2.017
255501.000			-2.016			-2.016
255602.000			-2.016			-2.016
255700.000			-2.016			-2.016
255800.000			-2.016			-2.016
255901.000			-2.016			-2.016
256000.000			-2.016			-2.016
256100.000			-2.015			-2.015
256201.000			-2.016			-2.016
256301.000			-2.016			-2.016
256401.000			-2.015			-2.015
256502.000			-2.016			-2.016
256600.000			-2.015			-2.015
256700.000			-2.015			-2.015
256801.000			-2.015			-2.015
256900.000			-2.015			-2.015
257000.000			-2.017			-2.017
257101.000			-2.016			-2.016
257201.000			-2.015			-2.015
257301.000			-2.015			-2.015
257401.000			-2.015			-2.015
257500.000			-2.015			-2.015
257600.000			-2.014			-2.014
257701.000			-2.013			-2.013
257800.000			-2.013			-2.013
257900.000			-2.015			-2.015
258000.000			-2.015			-2.015
258101.000			-2.014			-2.014
258202.000			-2.014			-2.014
258301.000			-2.015			-2.015
258400.000			-2.014			-2.014
258501.000			-2.014			-2.014
258600.000			-2.014			-2.014
258700.000			-2.016			-2.016
258801.000			-2.015			-2.015
258900.000			-2.014			-2.014
259001.000			-2.014			-2.014
259102.000			-2.015			-2.015
259200.000			-2.015			-2.015
259300.000			-2.013			-2.013
259401.000			-2.014			-2.014
259500.000			-2.014			-2.014
259600.000			-2.014			-2.014
259701.000			-2.014			-2.014
259800.000			-2.013			-2.013
259901.000			-2.013			-2.013
260002.000			-2.013			-2.013
260100.000			-2.014			-2.014
260200.000			-2.014			-2.014
260301.000			-2.014			-2.014
260400.000			-2.012			-2.012
260500.000			-2.012			-2.012
260601.000			-2.013			-2.013
260700.000			-2.013			-2.013
260801.000			-2.013			-2.013
260902.000			-2.013			-2.013
261000.000			-2.014			-2.014
261100.000			-2.014			-2.014
261200.000			-2.013			-2.013
261300.000			-2.014			-2.014
261401.000			-2.014			-2.014
261500.000			-2.014			-2.014
261600.000			-2.015			-2.015
261702.000			-2.014			-2.014
261801.000			-2.014			-2.014
261900.000			-2.014			-2.014
262001.000			-2.014			-2.014
262100.000			-2.014			-2.014
262200.000			-2.014			-2.014
262301.000			-2.013			-2.013
262400.000			-2.014			-2.014
262500.000			-2.014			-2.014
262602.000			-2.013			-2.013
262701.000			-2.014			-2.014
262800.000			-2.013			-2.013
262901.000			-2.014			-2.014
263000.000			-2.015			-2.015
263100.000			-2.013			-2.013
263201.000			-2.013			-2.013
263300.000			-2.013			-2.013
263401.000			-2.014			-2.014
263502.000			-2.014			-2.014
263601.000			-2.014			-2.014
263700.000			-2.012			-2.012
263801.000			-2.013			-2.013
263900.000			-2.013			-2.013
264000.000			-2.013			-2.013
264101.000			-2.014			-2.014
264200.000			-2.014			-2.014
264302.000			-2.014			-2.014
264401.000			-2.014			-2.014
264500.000			-2.013			-2.013
264601.000			-2.013			-2.013
264700.000			-2.013			-2.013
264800.000			-2.013			-2.013
264901.000			-2.013			-2.013
265000.000			-2.013			-2.013
265100.000			-2.012			-2.012
265202.000			-2.014			-2.014
265301.000			-2.013			-2.013
265400.000			-2.013			-2.013
265501.000			-2.013			-2.013
265600.000			-2.013			-2.013
265700.000			-2.014			-2.014
265801.000			-2.013			-2.013
265900.000			-2.013			-2.013
266000.000			-2.013			-2.013
266102.000			-2.012			-2.012
266201.000			-2.013			-2.013
266300.000			-2.014			-2.014
266401.000			-2.014			-2.014
266500.000			-2.014			-2.014
266600.000			-2.014			-2.014
266701.000			-2.013			-2.013
266800.000			-2.014			-2.014
266901.000			-2.015			-2.015
267002.000			-2.014			-2.014
267101.000			-2.014			-2.014
267200.000			-2.014			-2.014
267301.000			-2.014			-2.014
267400.000			-2.013			-2.013
267500.000			-2.013			-2.013
267600.000			-2.013			-2.013
267700.000			-2.014			-2.014
267802.000			-2.013			-2.013
267901.000			-2.013			-2.013
268001.000			-2.013			-2.013
268101.000			-2.013			-2.013
268200.000			-2.013			-2.013
268300.000			-2.013			-2.013
268401.000			-2.013			-2.013
268500.000			-2.012			-2.012
268600.000			-2.012			-2.012
268702.000			-2.012			-2.012
268801.000			-2.012			-2.012
268900.000			-2.012			-2.012
269001.000			-2.012			-2.012
269100.000			-2.013			-2.013
269200.000			-2.013			-2.013
269301.000			-2.012			-2.012
269400.000			-2.012			-2.012
269500.000			-2.012			-2.012
269602.000			-2.012			-2.012
269701.000			-2.012			-2.012
269800.000			-2.013			-2.013
269901.000			-2.013			-2.013
270000.000			-2.012			-2.012
270100.000			-2.012			-2.012
270201.000			-2.013			-2.013
270300.000			-2.012			-2.012
270401.000			-2.012			-2.012
270502.000			-2.012			-2.012
270601.000			-2.012			-2.012
270700.000			-2.012			-2.012
270800.000			-2.012			-2.012
270900.000			-2.012			-2.012
271001.000			-2.012			-2.012
271100.000			-2.013			-2.013
271200.000			-2.013			-2.013
271302.000			-2.013			-2.013
271401.000			-2.012			-2.012
271500.000			-2.013			-2.013
271601.000			-2.012			-2.012
271700.000			-2.012			-2.012
271800.000			-2.012			-2.012
271901.000			-2.012			-2.012
272000.000			-2.012			-2.012
272100.000			-2.012			-2.012
272202.000			-2.012			-2.012
272301.000			-2.011			-2.011
272400.000			-2.012			-2.012
272501.000			-2.013			-2.013
272600.000			-2.013			-2.013
272700.000			-2.012			-2.012
272801.000			-2.012			-2.012
272900.000			-2.012			-2.012
273001.000			-2.012			-2.012
273102.000			-2.013			-2.013
273201.000			-2.013			-2.013
273300.000			-2.012			-2.012
273401.000			-2.012			-2.012
273500.000			-2.012			-2.012
273600.000			-2.013			-2.013
273701.000			-2.013			-2.013
273800.000			-2.013			-2.013
273902.000			-2.012			-2.012
274001.000			-2.013			-2.013
274100.000			-2.013			-2.013
274201.000			-2.012			-2.012
274300.000			-2.012			-2.012
274400.000			-2.012			-2.012
274501.000			-2.012			-2.012
274600.000			-2.012			-2.012
274700.000			-2.011			-2.011
274802.000			-2.012			-2.012
274901.000			-2.012			-2.012
275000.000			-2.012			-2.012
275101.000			-2.012			-2.012
275200.000			-2.011			-2.011
275300.000			-2.011			-2.011
275401.000			-2.011			-2.011
275500.000			-2.011			-2.011
275601.000			-2.011			-2.011
275702.000			-2.012			-2.012
275801.000			-2.012			-2.012
275900.000			-2.011			-2.011
276001.000			-2.010			-2.010
276100.000			-2.011			-2.011
276200.000			-2.011			-2.011
276301.000			-2.012			-2.012
276400.000			-2.013			-2.013
276501.000			-2.012			-2.012
276602.000			-2.011			-2.011
276701.000			-2.012			-2.012
276800.000			-2.011			-2.011
276901.000			-2.011			-2.011
277000.000			-2.011			-2.011
277100.000			-2.012			-2.012
277200.000			-2.011			-2.011
277300.000			-2.010			-2.010
277402.000			-2.012			-2.012
277501.000			-2.012			-2.012
277600.000			-2.013			-2.013
277701.000			-2.012			-2.012
277800.000			-2.012			-2.012
277900.000			-2.012			-2.012
278001.000			-2.011			-2.011
278100.000			-2.011			-2.011
278200.000			-2.012			-2.012
278302.000			-2.012			-2.012
278401.000			-2.012			-2.012
278500.000			-2.012			-2.012
278601.000			-2.012			-2.012
278700.000			-2.012			-2.012
278800.000			-2.012			-2.012
278901.000			-2.013			-2.013
279000.000			-2.013			-2.013
279100.000			-2.013			-2.013
279202.000			-2.011			-2.011
279301.000			-2.012			-2.012
279400.000			-2.013			-2.013
279501.000			-2.013			-2.013
279600.000			-2.013			-2.013
279700.000			-2.012			-2.012
279801.000			-2.011			-2.011
279900.000			-2.012			-2.012
280000.000			-2.012			-2.012
280102.000			-2.013			-2.013
280201.000			-2.012			-2.012
280300.000			-2.012			-2.012
280400.000			-2.013			-2.013
280500.000			-2.013			-2.013
280601.000			-2.011			-2.011
280700.000			-2.011			-2.011
280800.000			-2.011			-2.011
280902.000			-2.011			-2.011
281001.000			-2.012			-2.012
281100.000			-2.013			-2.013
281201.000			-2.012			-2.012
281300.000			-2.012			-2.012
281400.000			-2.012			-2.012
281501.000			-2.012			-2.012
281600.000			-2.013			-2.013
281700.000			-2.013			-2.013
281802.000			-2.012			-2.012
281901.000			-2.012			-2.012
282000.000			-2.012			-2.012
282101.000			-2.012			-2.012
282200.000			-2.012			-2.012
282300.000			-2.013			-2.013
282401.000			-2.012			-2.012
282500.000			-2.011			-2.011
282601.000			-2.011			-2.011
282702.000			-2.011			-2.011
282801.000			-2.012			-2.012
282900.000			-2.011			-2.011
283001.000			-2.011			-2.011
283100.000			-2.011			-2.011
283200.000			-2.011			-2.011
283301.000			-2.013			-2.013
283400.000			-2.013			-2.013
283502.000			-2.013			-2.013
283601.000			-2.013			-2.013
283700.000			-2.012			-2.012
283801.000			-2.012			-2.012
283900.000			-2.012			-2.012
284000.000			-2.012			-2.012
284101.000			-2.012			-2.012
284200.000			-2.012			-2.012
284300.000			-2.012			-2.012
284402.000			-2.012			-2.012
284501.000			-2.013			-2.013
284600.000			-2.013			-2.013
284701.000			-2.013			-2.013
284800.000			-2.014			-2.014
284900.000			-2.014			-2.014
285001.000			-2.012			-2.012
285100.000			-2.012			-2.012
285201.000			-2.013			-2.013
285302.000			-2.013			-2.013
285401.000			-2.013			-2.013
285500.000			-2.013			-2.013
285601.000			-2.012			-2.012
285700.000			-2.013			-2.013
285800.000			-2.014			-2.014
285901.000			-2.013			-2.013
286000.000			-2.013			-2.013
286101.000			-2.013			-2.013
286202.000			-2.013			-2.013
286301.000			-2.014			-2.014
286400.000			-2.013			-2.013
286501.000			-2.012			-2.012
286600.000			-2.013			-2.013
286700.000			-2.013			-2.013
286800.000			-2.012			-2.012
286900.000			-2.013			-2.013
287002.000			-2.013			-2.013
287101.000			-2.013			-2.013
287201.000			-2.012			-2.012
287301.000			-2.013			-2.013
287400.000			-2.013			-2.013
287500.000			-2.013			-2.013
287601.000			-2.013			-2.013
287700.000			-2.012			-2.012
287800.000			-2.012			-2.012
287902.000			-2.013			-2.013
288001.000			-2.013			-2.013
288100.000			-2.013			-2.013
288201.000			-2.012			-2.012
288300.000			-2.013			-2.013
288400.000			-2.013			-2.013
288501.000			-2.013			-2.013
288600.000			-2.013			-2.013
288700.000			-2.013			-2.013
288802.000			-2.013			-2.013
288901.000			-2.013			-2.013
289001.000			-2.013			-2.013
289101.000			-2.013			-2.013
289200.000			-2.013			-2.013
289300.000			-2.012			-2.012
289401.000			-2.013			-2.013
289500.000			-2.013			-2.013
289600.000			-2.012			-2.012
289702.000			-2.012			-2.012
289801.000			-2.013			-2.013
289900.000			-2.012			-2.012
290000.000			-2.012			-2.012
290100.000			-2.013			-2.013
290201.000			-2.014			-2.014
290300.000			-2.013			-2.013
290400.000			-2.013			-2.013
290501.000			-2.013			-2.013
290601.000			-2.013			-2.013
290701.000			-2.013			-2.013
290801.000			-2.013			-2.013
290900.000			-2.012			-2.012
291000.000			-2.012			-2.012
291101.000			-2.013			-2.013
291200.000			-2.014			-2.014
291300.000			-2.013			-2.013
291401.000			-2.013			-2.013
291501.000			-2.014			-2.014
291601.000			-2.013			-2.013
291701.000			-2.013			-2.013
291800.000			-2.013			-2.013
291900.000			-2.012			-2.012
292001.000			-2.013			-2.013
292100.000			-2.013			-2.013
292200.000			-2.012			-2.012
292302.000			-2.012			-2.012
292401.000			-2.012			-2.012
292500.000			-2.013			-2.013
292601.000			-2.013			-2.013
292700.000			-2.013			-2.013
292800.000			-2.012			-2.012
292901.000			-2.012			-2.012
293000.000			-2.012			-2.012
293100.000			-2.012			-2.012
293202.000			-2.013			-2.013
293301.000			-2.013			-2.013
293401.000			-2.013			-2.013
293500.000			-2.013			-2.013
293600.000			-2.013			-2.013
293701.000			-2.013			-2.013
293800.000			-2.013			-2.013
293900.000			-2.012			-2.012
294001.000			-2.013			-2.013
294101.000			-2.013			-2.013
294201.000			-2.013			-2.013
294301.000			-2.013			-2.013
294400.000			-2.012			-2.012
294500.000			-2.012			-2.012
294601.000			-2.012			-2.012
294700.000			-2.013			-2.013
294800.000			-2.012			-2.012
294901.000			-2.012			-2.012
295001.000			-2.012			-2.012
295101.000			-2.012			-2.012
295201.000			-2.012			-2.012
295300.000			-2.012			-2.012
295400.000			-2.011			-2.011
295501.000			-2.012			-2.012
295600.000			-2.013			-2.013
295700.000			-2.013			-2.013
295801.000			-2.012			-2.012
295901.000			-2.012			-2.012
296001.000			-2.011			-2.011
296101.000			-2.012			-2.012
296200.000			-2.013			-2.013
296300.000			-2.013			-2.013
296400.000			-2.013			-2.013
296500.000			-2.012			-2.012
296601.000			-2.012			-2.012
296700.000			-2.013			-2.013
296801.000			-2.012			-2.012
296902.000			-2.011			-2.011
297000.000			-2.012			-2.012
297100.000			-2.011			-2.011
297201.000			-2.012			-2.012
297300.000			-2.012			-2.012
297400.000			-2.011			-2.011
297501.000			-2.012			-2.012
297600.000			-2.011			-2.011
297701.000			-2.011			-2.011
297802.000			-2.011			-2.011
297900.000			-2.012			-2.012
298000.000			-2.013			-2.013
298101.000			-2.012			-2.012
298200.000			-2.012			-2.012
298300.000			-2.012			-2.012
298401.000			-2.011			-2.011
298501.000			-2.011			-2.011
298601.000			-2.012			-2.012
298702.000			-2.012			-2.012
298800.000			-2.011			-2.011
298900.000			-2.011			-2.011
299001.000			-2.012			-2.012
299100.000			-2.013			-2.013
299200.000			-2.012			-2.012
299301.000			-2.011			-2.011
299401.000			-2.010			-2.010
299502.000			-2.010			-2.010
299601.000			-2.011			-2.011
299700.000			-2.011			-2.011
299801.000			-2.011			-2.011
299900.000			-2.010			-2.010
