# Acquired on 30/01/2024 11:52:03 
# SPIDER: Creep_11mm_HM077x145x38AB-2
# CREEP MEASUREMENT

# time [ms]		force [N]		stiffness [N/mm]
1.000			-33.626			-3.057
105.000			-34.060			-3.096
203.000			-34.140			-3.104
305.000			-34.040			-3.095
404.000			-33.842			-3.077
504.000			-33.773			-3.070
605.000			-33.715			-3.065
703.000			-33.661			-3.060
804.000			-33.612			-3.056
905.000			-33.569			-3.052
1004.000			-33.529			-3.048
1104.000			-33.459			-3.042
1204.000			-33.426			-3.039
1304.000			-33.395			-3.036
1404.000			-33.367			-3.033
1505.000			-33.340			-3.031
1604.000			-33.313			-3.028
1704.000			-33.289			-3.026
1805.000			-33.244			-3.022
1903.000			-33.221			-3.020
2004.000			-33.200			-3.018
2105.000			-33.179			-3.016
2204.000			-33.160			-3.015
2304.000			-33.142			-3.013
2404.000			-33.124			-3.011
2504.000			-33.107			-3.010
2604.000			-33.072			-3.007
2705.000			-33.055			-3.005
2804.000			-33.040			-3.004
2904.000			-33.026			-3.002
3005.000			-33.010			-3.001
3103.000			-32.996			-3.000
3205.000			-32.982			-2.998
3304.000			-32.955			-2.996
3404.000			-32.941			-2.995
3505.000			-32.929			-2.994
3603.000			-32.917			-2.992
3704.000			-32.905			-2.991
3805.000			-32.893			-2.990
3904.000			-32.881			-2.989
4004.000			-32.859			-2.987
4105.000			-32.848			-2.986
4204.000			-32.836			-2.985
4303.000			-32.825			-2.984
4405.000			-32.815			-2.983
4504.000			-32.805			-2.982
4604.000			-32.795			-2.981
4705.000			-32.774			-2.979
4804.000			-32.764			-2.979
4904.000			-32.754			-2.978
5004.000			-32.746			-2.977
5104.000			-32.736			-2.976
5204.000			-32.727			-2.975
5305.000			-32.719			-2.974
5404.000			-32.710			-2.974
5503.000			-32.692			-2.972
5605.000			-32.683			-2.971
5704.000			-32.675			-2.970
5804.000			-32.667			-2.970
5905.000			-32.659			-2.969
6004.000			-32.652			-2.968
6104.000			-32.645			-2.968
6203.000			-32.626			-2.966
6304.000			-32.620			-2.965
6405.000			-32.612			-2.965
6504.000			-32.606			-2.964
6604.000			-32.599			-2.964
6704.000			-32.591			-2.963
6804.000			-32.584			-2.962
6904.000			-32.570			-2.961
7005.000			-32.564			-2.960
7104.000			-32.557			-2.960
7204.000			-32.550			-2.959
7305.000			-32.544			-2.959
7403.000			-32.537			-2.958
7504.000			-32.530			-2.957
7605.000			-32.523			-2.957
7704.000			-32.511			-2.956
7804.000			-32.505			-2.955
7904.000			-32.500			-2.955
8004.000			-32.494			-2.954
8103.000			-32.487			-2.953
8205.000			-32.481			-2.953
8304.000			-32.475			-2.952
8404.000			-32.464			-2.951
8505.000			-32.458			-2.951
8603.000			-32.452			-2.950
8704.000			-32.447			-2.950
8805.000			-32.441			-2.949
8904.000			-32.435			-2.949
9004.000			-32.429			-2.948
9105.000			-32.419			-2.947
9204.000			-32.414			-2.947
9303.000			-32.409			-2.946
9405.000			-32.402			-2.946
9504.000			-32.396			-2.945
9605.000			-32.392			-2.945
9704.000			-32.387			-2.944
9803.000			-32.376			-2.943
9905.000			-32.372			-2.943
10004.000			-32.367			-2.942
10104.000			-32.362			-2.942
10205.000			-32.357			-2.942
10304.000			-32.353			-2.941
10404.000			-32.348			-2.941
10504.000			-32.343			-2.940
10604.000			-32.333			-2.939
10704.000			-32.328			-2.939
10805.000			-32.324			-2.939
10904.000			-32.319			-2.938
11004.000			-32.314			-2.938
11105.000			-32.310			-2.937
11203.000			-32.305			-2.937
11304.000			-32.297			-2.936
11405.000			-32.292			-2.936
11504.000			-32.286			-2.935
11604.000			-32.282			-2.935
11704.000			-32.278			-2.934
11804.000			-32.274			-2.934
11904.000			-32.271			-2.934
12005.000			-32.261			-2.933
12104.000			-32.258			-2.933
12204.000			-32.254			-2.932
12305.000			-32.249			-2.932
12403.000			-32.245			-2.931
12504.000			-32.241			-2.931
12605.000			-32.236			-2.931
12704.000			-32.229			-2.930
12805.000			-32.225			-2.930
12904.000			-32.222			-2.929
13004.000			-32.218			-2.929
13104.000			-32.215			-2.929
13204.000			-32.210			-2.928
13304.000			-32.206			-2.928
13405.000			-32.203			-2.928
13504.000			-32.194			-2.927
13603.000			-32.190			-2.926
13705.000			-32.187			-2.926
13804.000			-32.183			-2.926
13904.000			-32.180			-2.925
14005.000			-32.175			-2.925
14104.000			-32.172			-2.925
14204.000			-32.164			-2.924
14304.000			-32.161			-2.924
14404.000			-32.157			-2.923
14504.000			-32.153			-2.923
14605.000			-32.149			-2.923
14704.000			-32.146			-2.922
14804.000			-32.143			-2.922
14905.000			-32.135			-2.921
15003.000			-32.132			-2.921
15104.000			-32.128			-2.921
15205.000			-32.125			-2.920
15304.000			-32.121			-2.920
15404.000			-32.118			-2.920
15504.000			-32.115			-2.920
15604.000			-32.113			-2.919
15704.000			-32.105			-2.919
15804.000			-32.102			-2.918
15904.000			-32.100			-2.918
16005.000			-32.095			-2.918
16104.000			-32.092			-2.917
16203.000			-32.089			-2.917
16305.000			-32.086			-2.917
16404.000			-32.079			-2.916
16504.000			-32.077			-2.916
16605.000			-32.074			-2.916
16704.000			-32.071			-2.916
16804.000			-32.067			-2.915
16904.000			-32.064			-2.915
17004.000			-32.061			-2.915
17104.000			-32.054			-2.914
17205.000			-32.051			-2.914
17304.000			-32.049			-2.914
17404.000			-32.046			-2.913
17505.000			-32.043			-2.913
17603.000			-32.040			-2.913
17704.000			-32.036			-2.912
17805.000			-32.031			-2.912
17904.000			-32.029			-2.912
18004.000			-32.027			-2.912
18104.000			-32.022			-2.911
18204.000			-32.019			-2.911
18304.000			-32.017			-2.911
18405.000			-32.014			-2.910
18504.000			-32.010			-2.910
18604.000			-32.004			-2.909
18705.000			-32.001			-2.909
18803.000			-31.998			-2.909
18904.000			-31.996			-2.909
19005.000			-31.994			-2.909
19104.000			-31.991			-2.908
19205.000			-31.989			-2.908
19304.000			-31.983			-2.908
19404.000			-31.980			-2.907
19504.000			-31.977			-2.907
19604.000			-31.975			-2.907
19704.000			-31.972			-2.907
19805.000			-31.969			-2.906
19904.000			-31.967			-2.906
20004.000			-31.962			-2.906
20105.000			-31.959			-2.905
20203.000			-31.956			-2.905
20304.000			-31.953			-2.905
20405.000			-31.950			-2.905
20504.000			-31.947			-2.904
20604.000			-31.945			-2.904
20705.000			-31.939			-2.904
20804.000			-31.938			-2.903
20903.000			-31.936			-2.903
21005.000			-31.933			-2.903
21104.000			-31.931			-2.903
21204.000			-31.928			-2.903
21305.000			-31.925			-2.902
21404.000			-31.922			-2.902
21504.000			-31.918			-2.902
21604.000			-31.915			-2.901
21704.000			-31.912			-2.901
21804.000			-31.909			-2.901
21905.000			-31.907			-2.901
22004.000			-31.904			-2.900
22103.000			-31.902			-2.900
22205.000			-31.899			-2.900
22304.000			-31.896			-2.900
22405.000			-31.893			-2.899
22504.000			-31.891			-2.899
22604.000			-31.887			-2.899
22705.000			-31.886			-2.899
22804.000			-31.884			-2.899
22904.000			-31.879			-2.898
23004.000			-31.878			-2.898
23104.000			-31.875			-2.898
23204.000			-31.871			-2.897
23305.000			-31.870			-2.897
23404.000			-31.868			-2.897
23503.000			-31.866			-2.897
23605.000			-31.860			-2.896
23703.000			-31.858			-2.896
23804.000			-31.856			-2.896
23905.000			-31.854			-2.896
24004.000			-31.852			-2.896
24104.000			-31.849			-2.895
24204.000			-31.846			-2.895
24304.000			-31.844			-2.895
24404.000			-31.840			-2.895
24505.000			-31.838			-2.894
24604.000			-31.835			-2.894
24704.000			-31.833			-2.894
24805.000			-31.832			-2.894
24903.000			-31.830			-2.894
25004.000			-31.828			-2.893
25105.000			-31.823			-2.893
25204.000			-31.821			-2.893
25304.000			-31.818			-2.893
25404.000			-31.816			-2.892
25504.000			-31.815			-2.892
25603.000			-31.813			-2.892
25704.000			-31.812			-2.892
25804.000			-31.806			-2.891
25905.000			-31.804			-2.891
26004.000			-31.803			-2.891
26104.000			-31.801			-2.891
26205.000			-31.798			-2.891
26303.000			-31.795			-2.890
26404.000			-31.793			-2.890
26505.000			-31.790			-2.890
26604.000			-31.788			-2.890
26704.000			-31.786			-2.890
26805.000			-31.784			-2.889
26904.000			-31.782			-2.889
27003.000			-31.780			-2.889
27105.000			-31.778			-2.889
27204.000			-31.775			-2.889
27304.000			-31.773			-2.888
27405.000			-31.771			-2.888
27504.000			-31.768			-2.888
27604.000			-31.765			-2.888
27704.000			-31.763			-2.888
27804.000			-31.761			-2.887
27904.000			-31.759			-2.887
28005.000			-31.756			-2.887
28104.000			-31.755			-2.887
28204.000			-31.753			-2.887
28305.000			-31.750			-2.886
28403.000			-31.748			-2.886
28504.000			-31.747			-2.886
28605.000			-31.744			-2.886
28704.000			-31.741			-2.886
28805.000			-31.739			-2.885
28904.000			-31.737			-2.885
29004.000			-31.736			-2.885
29104.000			-31.734			-2.885
29204.000			-31.732			-2.885
29304.000			-31.731			-2.885
29405.000			-31.728			-2.884
29504.000			-31.724			-2.884
29604.000			-31.721			-2.884
29705.000			-31.720			-2.884
29803.000			-31.719			-2.884
29904.000			-31.717			-2.883
30005.000			-31.715			-2.883
30104.000			-31.714			-2.883
30204.000			-31.709			-2.883
30305.000			-31.707			-2.882
30404.000			-31.706			-2.882
30503.000			-31.704			-2.882
30605.000			-31.702			-2.882
30704.000			-31.700			-2.882
30804.000			-31.698			-2.882
30905.000			-31.694			-2.881
31004.000			-31.693			-2.881
31104.000			-31.692			-2.881
31204.000			-31.690			-2.881
31304.000			-31.688			-2.881
31404.000			-31.686			-2.881
31505.000			-31.684			-2.880
31604.000			-31.679			-2.880
31703.000			-31.677			-2.880
31805.000			-31.676			-2.880
31904.000			-31.675			-2.880
32005.000			-31.674			-2.879
32104.000			-31.673			-2.879
32204.000			-31.671			-2.879
32305.000			-31.669			-2.879
32403.000			-31.663			-2.878
32504.000			-31.661			-2.878
32605.000			-31.659			-2.878
32704.000			-31.657			-2.878
32804.000			-31.656			-2.878
32905.000			-31.654			-2.878
33004.000			-31.652			-2.877
33103.000			-31.649			-2.877
33205.000			-31.648			-2.877
33304.000			-31.645			-2.877
33404.000			-31.645			-2.877
33505.000			-31.644			-2.877
33604.000			-31.642			-2.877
33704.000			-31.640			-2.876
33804.000			-31.636			-2.876
33904.000			-31.636			-2.876
34004.000			-31.634			-2.876
34105.000			-31.631			-2.876
34204.000			-31.628			-2.875
34303.000			-31.628			-2.875
34405.000			-31.627			-2.875
34504.000			-31.625			-2.875
34604.000			-31.621			-2.875
34705.000			-31.619			-2.874
34804.000			-31.618			-2.874
34904.000			-31.617			-2.874
35003.000			-31.615			-2.874
35104.000			-31.615			-2.874
35205.000			-31.614			-2.874
35304.000			-31.609			-2.874
35404.000			-31.608			-2.873
35505.000			-31.606			-2.873
35604.000			-31.604			-2.873
35703.000			-31.603			-2.873
35805.000			-31.602			-2.873
35904.000			-31.599			-2.873
36004.000			-31.596			-2.872
36105.000			-31.595			-2.872
36204.000			-31.592			-2.872
36304.000			-31.591			-2.872
36404.000			-31.590			-2.872
36504.000			-31.589			-2.872
36604.000			-31.588			-2.872
36705.000			-31.584			-2.871
36804.000			-31.582			-2.871
36904.000			-31.582			-2.871
37005.000			-31.581			-2.871
37103.000			-31.578			-2.871
37204.000			-31.576			-2.871
37305.000			-31.575			-2.870
37404.000			-31.574			-2.870
37504.000			-31.571			-2.870
37605.000			-31.569			-2.870
37704.000			-31.567			-2.870
37803.000			-31.566			-2.870
37905.000			-31.565			-2.870
38004.000			-31.563			-2.869
38104.000			-31.563			-2.869
38205.000			-31.558			-2.869
38304.000			-31.558			-2.869
38405.000			-31.557			-2.869
38503.000			-31.555			-2.869
38604.000			-31.553			-2.868
38705.000			-31.552			-2.868
38804.000			-31.551			-2.868
38904.000			-31.548			-2.868
39005.000			-31.546			-2.868
39104.000			-31.544			-2.868
39203.000			-31.544			-2.868
39305.000			-31.543			-2.868
39404.000			-31.541			-2.867
39504.000			-31.540			-2.867
39605.000			-31.537			-2.867
39704.000			-31.536			-2.867
39804.000			-31.534			-2.867
39904.000			-31.533			-2.867
40004.000			-31.530			-2.866
40104.000			-31.529			-2.866
40205.000			-31.528			-2.866
40304.000			-31.528			-2.866
40403.000			-31.525			-2.866
40505.000			-31.523			-2.866
40604.000			-31.521			-2.866
40704.000			-31.520			-2.865
40805.000			-31.519			-2.865
40904.000			-31.517			-2.865
41004.000			-31.515			-2.865
41104.000			-31.513			-2.865
41204.000			-31.512			-2.865
41304.000			-31.511			-2.865
41404.000			-31.509			-2.864
41504.000			-31.508			-2.864
41603.000			-31.505			-2.864
41704.000			-31.503			-2.864
41804.000			-31.501			-2.864
41905.000			-31.499			-2.864
42004.000			-31.498			-2.863
42104.000			-31.497			-2.863
42205.000			-31.495			-2.863
42303.000			-31.494			-2.863
42404.000			-31.492			-2.863
42505.000			-31.490			-2.863
42604.000			-31.488			-2.863
42704.000			-31.487			-2.862
42805.000			-31.485			-2.862
42904.000			-31.484			-2.862
43004.000			-31.484			-2.862
43105.000			-31.482			-2.862
43203.000			-31.481			-2.862
43304.000			-31.477			-2.862
43405.000			-31.478			-2.862
43504.000			-31.476			-2.861
43604.000			-31.474			-2.861
43704.000			-31.473			-2.861
43804.000			-31.471			-2.861
43904.000			-31.470			-2.861
44005.000			-31.468			-2.861
44104.000			-31.468			-2.861
44204.000			-31.466			-2.861
44305.000			-31.465			-2.860
44403.000			-31.464			-2.860
44504.000			-31.463			-2.860
44605.000			-31.461			-2.860
44704.000			-31.459			-2.860
44805.000			-31.457			-2.860
44904.000			-31.455			-2.860
45004.000			-31.453			-2.859
45104.000			-31.453			-2.859
45204.000			-31.452			-2.859
45304.000			-31.451			-2.859
45405.000			-31.450			-2.859
45504.000			-31.447			-2.859
45604.000			-31.446			-2.859
45705.000			-31.444			-2.859
45803.000			-31.444			-2.859
45904.000			-31.442			-2.858
46005.000			-31.441			-2.858
46104.000			-31.439			-2.858
46204.000			-31.436			-2.858
46305.000			-31.436			-2.858
46404.000			-31.435			-2.858
46503.000			-31.433			-2.858
46605.000			-31.431			-2.857
46704.000			-31.430			-2.857
46804.000			-31.429			-2.857
46905.000			-31.428			-2.857
47003.000			-31.426			-2.857
47104.000			-31.425			-2.857
47205.000			-31.424			-2.857
47304.000			-31.422			-2.857
47404.000			-31.421			-2.856
47505.000			-31.420			-2.856
47604.000			-31.417			-2.856
47703.000			-31.418			-2.856
47805.000			-31.415			-2.856
47904.000			-31.413			-2.856
48005.000			-31.412			-2.856
48104.000			-31.411			-2.856
48204.000			-31.411			-2.856
48305.000			-31.409			-2.855
48403.000			-31.406			-2.855
48504.000			-31.405			-2.855
48605.000			-31.404			-2.855
48704.000			-31.403			-2.855
48804.000			-31.403			-2.855
48905.000			-31.402			-2.855
49004.000			-31.401			-2.855
49103.000			-31.397			-2.854
49205.000			-31.396			-2.854
49304.000			-31.395			-2.854
49404.000			-31.394			-2.854
49505.000			-31.393			-2.854
49604.000			-31.392			-2.854
49704.000			-31.390			-2.854
49804.000			-31.389			-2.854
49904.000			-31.388			-2.853
50004.000			-31.386			-2.853
50105.000			-31.384			-2.853
50204.000			-31.383			-2.853
50303.000			-31.383			-2.853
50405.000			-31.382			-2.853
50504.000			-31.380			-2.853
50604.000			-31.378			-2.853
50705.000			-31.377			-2.852
50804.000			-31.376			-2.852
50904.000			-31.375			-2.852
51003.000			-31.374			-2.852
51104.000			-31.373			-2.852
51205.000			-31.371			-2.852
51304.000			-31.370			-2.852
51404.000			-31.370			-2.852
51505.000			-31.368			-2.852
51604.000			-31.366			-2.851
51703.000			-31.365			-2.851
51805.000			-31.363			-2.851
51904.000			-31.362			-2.851
52004.000			-31.361			-2.851
52105.000			-31.360			-2.851
52204.000			-31.358			-2.851
52304.000			-31.357			-2.851
52404.000			-31.357			-2.851
52504.000			-31.355			-2.850
52604.000			-31.354			-2.850
52705.000			-31.351			-2.850
52804.000			-31.350			-2.850
52904.000			-31.349			-2.850
53005.000			-31.349			-2.850
53103.000			-31.347			-2.850
53204.000			-31.346			-2.850
53305.000			-31.345			-2.850
53404.000			-31.344			-2.849
53504.000			-31.342			-2.849
53604.000			-31.341			-2.849
53704.000			-31.340			-2.849
53804.000			-31.339			-2.849
53905.000			-31.338			-2.849
54004.000			-31.337			-2.849
54104.000			-31.336			-2.849
54205.000			-31.333			-2.848
54303.000			-31.332			-2.848
54405.000			-31.331			-2.848
54504.000			-31.330			-2.848
54604.000			-31.328			-2.848
54705.000			-31.327			-2.848
54804.000			-31.326			-2.848
54904.000			-31.324			-2.848
55004.000			-31.323			-2.848
55104.000			-31.322			-2.847
55204.000			-31.322			-2.847
55305.000			-31.321			-2.847
55404.000			-31.319			-2.847
55504.000			-31.318			-2.847
55605.000			-31.316			-2.847
55703.000			-31.316			-2.847
55804.000			-31.314			-2.847
55905.000			-31.313			-2.847
56004.000			-31.311			-2.846
56104.000			-31.311			-2.846
56204.000			-31.310			-2.846
56304.000			-31.308			-2.846
56404.000			-31.307			-2.846
56505.000			-31.306			-2.846
56604.000			-31.305			-2.846
56704.000			-31.304			-2.846
56805.000			-31.302			-2.846
56903.000			-31.301			-2.846
57004.000			-31.301			-2.846
57105.000			-31.297			-2.845
57204.000			-31.296			-2.845
57304.000			-31.295			-2.845
57404.000			-31.295			-2.845
57504.000			-31.296			-2.845
57603.000			-31.294			-2.845
57704.000			-31.293			-2.845
57804.000			-31.290			-2.845
57905.000			-31.290			-2.845
58004.000			-31.289			-2.844
58104.000			-31.289			-2.844
58205.000			-31.287			-2.844
58303.000			-31.285			-2.844
58404.000			-31.285			-2.844
58505.000			-31.284			-2.844
58604.000			-31.282			-2.844
58704.000			-31.282			-2.844
58805.000			-31.280			-2.844
58904.000			-31.278			-2.843
59003.000			-31.277			-2.843
59105.000			-31.277			-2.843
59204.000			-31.275			-2.843
59304.000			-31.274			-2.843
59405.000			-31.273			-2.843
59504.000			-31.273			-2.843
59604.000			-31.272			-2.843
59704.000			-31.271			-2.843
59804.000			-31.270			-2.843
59904.000			-31.268			-2.843
60005.000			-31.266			-2.842
60104.000			-31.265			-2.842
60204.000			-31.264			-2.842
60305.000			-31.262			-2.842
60403.000			-31.262			-2.842
60504.000			-31.261			-2.842
60605.000			-31.260			-2.842
60704.000			-31.259			-2.842
60805.000			-31.258			-2.842
60904.000			-31.256			-2.841
61004.000			-31.255			-2.841
61104.000			-31.254			-2.841
61204.000			-31.254			-2.841
61304.000			-31.252			-2.841
61405.000			-31.252			-2.841
61504.000			-31.250			-2.841
61603.000			-31.249			-2.841
61705.000			-31.248			-2.841
61804.000			-31.247			-2.841
61904.000			-31.247			-2.841
62005.000			-31.246			-2.841
62104.000			-31.245			-2.840
62204.000			-31.242			-2.840
62304.000			-31.241			-2.840
62404.000			-31.240			-2.840
62504.000			-31.240			-2.840
62605.000			-31.239			-2.840
62704.000			-31.238			-2.840
62804.000			-31.237			-2.840
62905.000			-31.236			-2.840
63003.000			-31.235			-2.840
63104.000			-31.233			-2.839
63205.000			-31.232			-2.839
63304.000			-31.231			-2.839
63404.000			-31.230			-2.839
63505.000			-31.229			-2.839
63604.000			-31.228			-2.839
63703.000			-31.227			-2.839
63805.000			-31.226			-2.839
63904.000			-31.225			-2.839
64005.000			-31.225			-2.839
64104.000			-31.224			-2.839
64203.000			-31.223			-2.838
64305.000			-31.221			-2.838
64404.000			-31.219			-2.838
64504.000			-31.218			-2.838
64605.000			-31.217			-2.838
64704.000			-31.217			-2.838
64804.000			-31.216			-2.838
64904.000			-31.216			-2.838
65004.000			-31.215			-2.838
65104.000			-31.213			-2.838
65205.000			-31.211			-2.837
65304.000			-31.211			-2.837
65404.000			-31.210			-2.837
65505.000			-31.208			-2.837
65603.000			-31.208			-2.837
65704.000			-31.207			-2.837
65805.000			-31.205			-2.837
65904.000			-31.205			-2.837
66004.000			-31.204			-2.837
66105.000			-31.203			-2.837
66204.000			-31.202			-2.837
66303.000			-31.200			-2.836
66405.000			-31.199			-2.836
66504.000			-31.199			-2.836
66604.000			-31.197			-2.836
66705.000			-31.196			-2.836
66803.000			-31.195			-2.836
66904.000			-31.194			-2.836
67003.000			-31.193			-2.836
67104.000			-31.193			-2.836
67205.000			-31.193			-2.836
67304.000			-31.191			-2.836
67404.000			-31.191			-2.836
67505.000			-31.190			-2.835
67604.000			-31.188			-2.835
67703.000			-31.188			-2.835
67805.000			-31.187			-2.835
67904.000			-31.186			-2.835
68004.000			-31.183			-2.835
68105.000			-31.184			-2.835
68204.000			-31.183			-2.835
68304.000			-31.182			-2.835
68404.000			-31.181			-2.835
68504.000			-31.179			-2.834
68604.000			-31.178			-2.834
68705.000			-31.177			-2.834
68804.000			-31.176			-2.834
68904.000			-31.175			-2.834
69005.000			-31.173			-2.834
69103.000			-31.173			-2.834
69204.000			-31.172			-2.834
69305.000			-31.171			-2.834
69404.000			-31.170			-2.834
69504.000			-31.170			-2.834
69605.000			-31.169			-2.834
69704.000			-31.168			-2.833
69803.000			-31.167			-2.833
69905.000			-31.166			-2.833
70004.000			-31.165			-2.833
70104.000			-31.164			-2.833
70205.000			-31.161			-2.833
70304.000			-31.162			-2.833
70405.000			-31.161			-2.833
70503.000			-31.160			-2.833
70604.000			-31.159			-2.833
70705.000			-31.159			-2.833
70804.000			-31.159			-2.833
70904.000			-31.156			-2.832
71005.000			-31.155			-2.832
71104.000			-31.154			-2.832
71203.000			-31.154			-2.832
71305.000			-31.153			-2.832
71404.000			-31.153			-2.832
71504.000			-31.151			-2.832
71605.000			-31.150			-2.832
71703.000			-31.148			-2.832
71804.000			-31.147			-2.832
71905.000			-31.147			-2.832
72004.000			-31.146			-2.831
72104.000			-31.147			-2.832
72205.000			-31.145			-2.831
72304.000			-31.144			-2.831
72403.000			-31.141			-2.831
72505.000			-31.141			-2.831
72604.000			-31.141			-2.831
72704.000			-31.140			-2.831
72805.000			-31.139			-2.831
72904.000			-31.137			-2.831
73004.000			-31.135			-2.830
73104.000			-31.135			-2.830
73204.000			-31.135			-2.830
73304.000			-31.135			-2.830
73404.000			-31.134			-2.830
73504.000			-31.133			-2.830
73605.000			-31.132			-2.830
73704.000			-31.130			-2.830
73803.000			-31.129			-2.830
73905.000			-31.128			-2.830
74004.000			-31.127			-2.830
74104.000			-31.127			-2.830
74205.000			-31.126			-2.830
74304.000			-31.126			-2.830
74404.000			-31.125			-2.830
74504.000			-31.125			-2.830
74604.000			-31.122			-2.829
74704.000			-31.121			-2.829
74805.000			-31.120			-2.829
74904.000			-31.120			-2.829
75004.000			-31.119			-2.829
75105.000			-31.117			-2.829
75203.000			-31.117			-2.829
75304.000			-31.117			-2.829
75405.000			-31.115			-2.829
75504.000			-31.114			-2.829
75604.000			-31.114			-2.829
75704.000			-31.112			-2.828
75804.000			-31.112			-2.828
75903.000			-31.111			-2.828
76005.000			-31.110			-2.828
76104.000			-31.109			-2.828
76204.000			-31.108			-2.828
76305.000			-31.107			-2.828
76403.000			-31.107			-2.828
76504.000			-31.106			-2.828
76605.000			-31.105			-2.828
76704.000			-31.104			-2.828
76805.000			-31.103			-2.828
76904.000			-31.103			-2.828
77004.000			-31.102			-2.827
77104.000			-31.100			-2.827
77204.000			-31.100			-2.827
77304.000			-31.099			-2.827
77405.000			-31.099			-2.827
77504.000			-31.096			-2.827
77604.000			-31.095			-2.827
77705.000			-31.095			-2.827
77803.000			-31.094			-2.827
77904.000			-31.094			-2.827
78005.000			-31.093			-2.827
78104.000			-31.092			-2.827
78204.000			-31.091			-2.826
78305.000			-31.091			-2.826
78404.000			-31.089			-2.826
78503.000			-31.087			-2.826
78605.000			-31.086			-2.826
78704.000			-31.086			-2.826
78804.000			-31.086			-2.826
78905.000			-31.084			-2.826
79004.000			-31.084			-2.826
79104.000			-31.083			-2.826
79204.000			-31.083			-2.826
79304.000			-31.082			-2.826
79404.000			-31.081			-2.826
79505.000			-31.081			-2.826
79604.000			-31.079			-2.825
79704.000			-31.078			-2.825
79805.000			-31.078			-2.825
79903.000			-31.078			-2.825
80005.000			-31.076			-2.825
80104.000			-31.075			-2.825
80204.000			-31.074			-2.825
80305.000			-31.074			-2.825
80404.000			-31.072			-2.825
80504.000			-31.073			-2.825
80604.000			-31.071			-2.825
80704.000			-31.071			-2.825
80804.000			-31.071			-2.825
80905.000			-31.069			-2.824
81004.000			-31.068			-2.824
81104.000			-31.066			-2.824
81205.000			-31.065			-2.824
81303.000			-31.064			-2.824
81404.000			-31.064			-2.824
81505.000			-31.063			-2.824
81604.000			-31.062			-2.824
81704.000			-31.061			-2.824
81805.000			-31.060			-2.824
81904.000			-31.060			-2.824
82003.000			-31.059			-2.824
82105.000			-31.057			-2.823
82204.000			-31.057			-2.823
82304.000			-31.056			-2.823
82405.000			-31.055			-2.823
82503.000			-31.055			-2.823
82604.000			-31.054			-2.823
82705.000			-31.053			-2.823
82804.000			-31.052			-2.823
82904.000			-31.051			-2.823
83004.000			-31.050			-2.823
83104.000			-31.050			-2.823
83203.000			-31.049			-2.823
83304.000			-31.049			-2.823
83404.000			-31.049			-2.823
83505.000			-31.047			-2.822
83604.000			-31.045			-2.822
83704.000			-31.044			-2.822
83805.000			-31.044			-2.822
83903.000			-31.044			-2.822
84004.000			-31.043			-2.822
84105.000			-31.043			-2.822
84204.000			-31.042			-2.822
84304.000			-31.041			-2.822
84405.000			-31.040			-2.822
84504.000			-31.039			-2.822
84603.000			-31.038			-2.822
84705.000			-31.036			-2.821
84804.000			-31.036			-2.821
84904.000			-31.035			-2.821
85005.000			-31.034			-2.821
85104.000			-31.034			-2.821
85204.000			-31.034			-2.821
85304.000			-31.033			-2.821
85404.000			-31.032			-2.821
85504.000			-31.030			-2.821
85605.000			-31.029			-2.821
85704.000			-31.029			-2.821
85804.000			-31.029			-2.821
85905.000			-31.027			-2.821
86003.000			-31.028			-2.821
86104.000			-31.027			-2.821
86205.000			-31.026			-2.821
86304.000			-31.024			-2.820
86405.000			-31.024			-2.820
86504.000			-31.023			-2.820
86604.000			-31.022			-2.820
86704.000			-31.021			-2.820
86804.000			-31.020			-2.820
86904.000			-31.019			-2.820
87005.000			-31.019			-2.820
87104.000			-31.018			-2.820
87204.000			-31.017			-2.820
87305.000			-31.017			-2.820
87403.000			-31.016			-2.820
87504.000			-31.015			-2.820
87605.000			-31.014			-2.819
87704.000			-31.014			-2.819
87804.000			-31.013			-2.819
87905.000			-31.013			-2.819
88004.000			-31.011			-2.819
88103.000			-31.011			-2.819
88205.000			-31.010			-2.819
88304.000			-31.009			-2.819
88404.000			-31.008			-2.819
88505.000			-31.008			-2.819
88604.000			-31.007			-2.819
88704.000			-31.006			-2.819
88805.000			-31.005			-2.819
88904.000			-31.005			-2.819
89004.000			-31.004			-2.819
89105.000			-31.002			-2.818
89204.000			-31.001			-2.818
89303.000			-31.001			-2.818
89405.000			-31.001			-2.818
89504.000			-31.000			-2.818
89605.000			-30.999			-2.818
89704.000			-30.999			-2.818
89804.000			-30.997			-2.818
89905.000			-30.997			-2.818
90004.000			-30.996			-2.818
90104.000			-30.995			-2.818
90204.000			-30.995			-2.818
90304.000			-30.995			-2.818
90404.000			-30.994			-2.818
90505.000			-30.993			-2.818
90604.000			-30.992			-2.817
90704.000			-30.991			-2.817
90805.000			-30.990			-2.817
90903.000			-30.989			-2.817
91004.000			-30.989			-2.817
91105.000			-30.989			-2.817
91204.000			-30.988			-2.817
91304.000			-30.987			-2.817
91405.000			-30.986			-2.817
91504.000			-30.986			-2.817
91603.000			-30.985			-2.817
91705.000			-30.984			-2.817
91804.000			-30.983			-2.817
91904.000			-30.983			-2.817
92005.000			-30.981			-2.816
92104.000			-30.981			-2.816
92204.000			-30.980			-2.816
92304.000			-30.979			-2.816
92404.000			-30.979			-2.816
92504.000			-30.979			-2.816
92604.000			-30.978			-2.816
92704.000			-30.977			-2.816
92805.000			-30.977			-2.816
92904.000			-30.976			-2.816
93003.000			-30.976			-2.816
93105.000			-30.974			-2.816
93204.000			-30.974			-2.816
93304.000			-30.974			-2.816
93405.000			-30.971			-2.816
93504.000			-30.971			-2.816
93604.000			-30.970			-2.815
93704.000			-30.969			-2.815
93804.000			-30.969			-2.815
93904.000			-30.968			-2.815
94005.000			-30.967			-2.815
94104.000			-30.966			-2.815
94204.000			-30.965			-2.815
94305.000			-30.963			-2.815
94403.000			-30.964			-2.815
94504.000			-30.964			-2.815
94605.000			-30.963			-2.815
94704.000			-30.963			-2.815
94804.000			-30.962			-2.815
94905.000			-30.961			-2.815
95004.000			-30.961			-2.815
95103.000			-30.959			-2.814
95205.000			-30.958			-2.814
95303.000			-30.957			-2.814
95404.000			-30.956			-2.814
95505.000			-30.956			-2.814
95604.000			-30.955			-2.814
95704.000			-30.955			-2.814
95804.000			-30.954			-2.814
95904.000			-30.953			-2.814
96003.000			-30.954			-2.814
96104.000			-30.953			-2.814
96204.000			-30.952			-2.814
96305.000			-30.951			-2.814
96404.000			-30.950			-2.814
96504.000			-30.949			-2.814
96605.000			-30.948			-2.813
96703.000			-30.948			-2.813
96804.000			-30.947			-2.813
96905.000			-30.946			-2.813
97004.000			-30.946			-2.813
97104.000			-30.945			-2.813
97205.000			-30.944			-2.813
97304.000			-30.943			-2.813
97403.000			-30.944			-2.813
97505.000			-30.943			-2.813
97604.000			-30.942			-2.813
97704.000			-30.941			-2.813
97805.000			-30.940			-2.813
97904.000			-30.940			-2.813
98004.000			-30.939			-2.813
98104.000			-30.938			-2.813
98204.000			-30.939			-2.813
98304.000			-30.938			-2.813
98405.000			-30.937			-2.812
98504.000			-30.936			-2.812
98604.000			-30.936			-2.812
98705.000			-30.935			-2.812
98803.000			-30.934			-2.812
98904.000			-30.933			-2.812
99005.000			-30.932			-2.812
99104.000			-30.932			-2.812
99205.000			-30.931			-2.812
99304.000			-30.929			-2.812
99404.000			-30.930			-2.812
99504.000			-30.929			-2.812
99604.000			-30.928			-2.812
99703.000			-30.927			-2.812
99805.000			-30.927			-2.812
99904.000			-30.926			-2.811
100004.000			-30.925			-2.811
100105.000			-30.925			-2.811
100204.000			-30.923			-2.811
100304.000			-30.923			-2.811
100404.000			-30.923			-2.811
100504.000			-30.923			-2.811
100604.000			-30.922			-2.811
100705.000			-30.920			-2.811
100804.000			-30.919			-2.811
100904.000			-30.918			-2.811
101005.000			-30.918			-2.811
101103.000			-30.917			-2.811
101204.000			-30.917			-2.811
101305.000			-30.917			-2.811
101404.000			-30.916			-2.811
101504.000			-30.914			-2.810
101605.000			-30.914			-2.810
101704.000			-30.913			-2.810
101803.000			-30.913			-2.810
101905.000			-30.913			-2.810
102004.000			-30.912			-2.810
102104.000			-30.911			-2.810
102205.000			-30.911			-2.810
102304.000			-30.911			-2.810
102405.000			-30.909			-2.810
102503.000			-30.908			-2.810
102604.000			-30.908			-2.810
102705.000			-30.906			-2.810
102804.000			-30.906			-2.810
102904.000			-30.905			-2.810
103005.000			-30.906			-2.810
103104.000			-30.904			-2.809
103203.000			-30.903			-2.809
103305.000			-30.902			-2.809
103404.000			-30.901			-2.809
103504.000			-30.902			-2.809
103605.000			-30.900			-2.809
103704.000			-30.900			-2.809
103804.000			-30.900			-2.809
103904.000			-30.899			-2.809
104004.000			-30.898			-2.809
104104.000			-30.898			-2.809
104205.000			-30.898			-2.809
104304.000			-30.898			-2.809
104404.000			-30.895			-2.809
104505.000			-30.894			-2.809
104603.000			-30.894			-2.809
104704.000			-30.893			-2.808
104805.000			-30.892			-2.808
104904.000			-30.892			-2.808
105004.000			-30.892			-2.808
105105.000			-30.890			-2.808
105204.000			-30.890			-2.808
105303.000			-30.891			-2.808
105405.000			-30.890			-2.808
105504.000			-30.888			-2.808
105605.000			-30.888			-2.808
105704.000			-30.888			-2.808
105804.000			-30.886			-2.808
105905.000			-30.886			-2.808
106003.000			-30.885			-2.808
106104.000			-30.885			-2.808
106205.000			-30.884			-2.808
106304.000			-30.883			-2.808
106404.000			-30.882			-2.807
106505.000			-30.883			-2.808
106604.000			-30.882			-2.807
106703.000			-30.882			-2.807
106805.000			-30.880			-2.807
106903.000			-30.880			-2.807
107004.000			-30.879			-2.807
107105.000			-30.878			-2.807
107204.000			-30.878			-2.807
107304.000			-30.877			-2.807
107405.000			-30.876			-2.807
107504.000			-30.874			-2.807
107603.000			-30.874			-2.807
107705.000			-30.875			-2.807
107804.000			-30.875			-2.807
107904.000			-30.873			-2.807
108005.000			-30.873			-2.807
108104.000			-30.872			-2.807
108204.000			-30.871			-2.806
108304.000			-30.870			-2.806
108404.000			-30.871			-2.806
108504.000			-30.871			-2.806
108604.000			-30.871			-2.806
108704.000			-30.868			-2.806
108805.000			-30.867			-2.806
108904.000			-30.867			-2.806
109003.000			-30.866			-2.806
109105.000			-30.865			-2.806
109203.000			-30.864			-2.806
109304.000			-30.863			-2.806
109405.000			-30.863			-2.806
109504.000			-30.863			-2.806
109604.000			-30.863			-2.806
109705.000			-30.861			-2.806
109804.000			-30.861			-2.806
109903.000			-30.861			-2.806
110005.000			-30.859			-2.805
110104.000			-30.859			-2.805
110204.000			-30.858			-2.805
110305.000			-30.858			-2.805
110404.000			-30.857			-2.805
110504.000			-30.855			-2.805
110604.000			-30.856			-2.805
110704.000			-30.855			-2.805
110804.000			-30.855			-2.805
110905.000			-30.854			-2.805
111004.000			-30.854			-2.805
111104.000			-30.853			-2.805
111205.000			-30.852			-2.805
111303.000			-30.852			-2.805
111404.000			-30.851			-2.805
111505.000			-30.850			-2.805
111604.000			-30.850			-2.805
111704.000			-30.850			-2.805
111804.000			-30.849			-2.804
111904.000			-30.847			-2.804
112005.000			-30.847			-2.804
112104.000			-30.847			-2.804
112203.000			-30.847			-2.804
112305.000			-30.846			-2.804
112404.000			-30.845			-2.804
112504.000			-30.844			-2.804
112605.000			-30.842			-2.804
112704.000			-30.843			-2.804
112804.000			-30.842			-2.804
112904.000			-30.840			-2.804
113004.000			-30.840			-2.804
113104.000			-30.840			-2.804
113205.000			-30.840			-2.804
113304.000			-30.839			-2.804
113404.000			-30.839			-2.804
113505.000			-30.838			-2.803
113603.000			-30.838			-2.803
113704.000			-30.836			-2.803
113805.000			-30.835			-2.803
113904.000			-30.834			-2.803
114004.000			-30.834			-2.803
114105.000			-30.833			-2.803
114204.000			-30.833			-2.803
114303.000			-30.834			-2.803
114405.000			-30.833			-2.803
114504.000			-30.832			-2.803
114604.000			-30.831			-2.803
114705.000			-30.830			-2.803
114804.000			-30.829			-2.803
114904.000			-30.829			-2.803
115003.000			-30.829			-2.803
115104.000			-30.828			-2.803
115205.000			-30.828			-2.803
115304.000			-30.826			-2.802
115404.000			-30.826			-2.802
115505.000			-30.825			-2.802
115604.000			-30.824			-2.802
115703.000			-30.824			-2.802
115805.000			-30.824			-2.802
115904.000			-30.824			-2.802
116004.000			-30.822			-2.802
116105.000			-30.823			-2.802
116204.000			-30.823			-2.802
116304.000			-30.822			-2.802
116404.000			-30.821			-2.802
116504.000			-30.820			-2.802
116603.000			-30.819			-2.802
116705.000			-30.818			-2.802
116804.000			-30.817			-2.802
116904.000			-30.817			-2.802
117005.000			-30.817			-2.802
117104.000			-30.816			-2.801
117204.000			-30.814			-2.801
117304.000			-30.813			-2.801
117404.000			-30.814			-2.801
117504.000			-30.814			-2.801
117605.000			-30.813			-2.801
117704.000			-30.813			-2.801
117804.000			-30.812			-2.801
117905.000			-30.811			-2.801
118003.000			-30.811			-2.801
118104.000			-30.811			-2.801
118205.000			-30.810			-2.801
118304.000			-30.809			-2.801
118405.000			-30.809			-2.801
118504.000			-30.808			-2.801
118604.000			-30.807			-2.801
118704.000			-30.807			-2.801
118804.000			-30.806			-2.801
118904.000			-30.805			-2.800
119005.000			-30.804			-2.800
119104.000			-30.805			-2.800
119204.000			-30.803			-2.800
119305.000			-30.803			-2.800
119403.000			-30.804			-2.800
119504.000			-30.803			-2.800
119605.000			-30.801			-2.800
119704.000			-30.799			-2.800
119804.000			-30.800			-2.800
119905.000			-30.800			-2.800
120004.000			-30.799			-2.800
120104.000			-30.798			-2.800
120205.000			-30.798			-2.800
120303.000			-30.798			-2.800
120404.000			-30.795			-2.800
120505.000			-30.795			-2.800
120604.000			-30.794			-2.799
120704.000			-30.795			-2.800
120805.000			-30.794			-2.799
120904.000			-30.793			-2.799
121003.000			-30.792			-2.799
121105.000			-30.792			-2.799
121204.000			-30.792			-2.799
121304.000			-30.791			-2.799
121405.000			-30.790			-2.799
121504.000			-30.790			-2.799
121605.000			-30.789			-2.799
121703.000			-30.789			-2.799
121804.000			-30.788			-2.799
121905.000			-30.788			-2.799
122004.000			-30.787			-2.799
122104.000			-30.787			-2.799
122205.000			-30.785			-2.799
122304.000			-30.784			-2.799
122404.000			-30.784			-2.799
122505.000			-30.784			-2.799
122603.000			-30.784			-2.799
122704.000			-30.783			-2.798
122805.000			-30.782			-2.798
122904.000			-30.782			-2.798
123004.000			-30.781			-2.798
123105.000			-30.781			-2.798
123204.000			-30.781			-2.798
123303.000			-30.779			-2.798
123405.000			-30.778			-2.798
123504.000			-30.779			-2.798
123604.000			-30.778			-2.798
123705.000			-30.777			-2.798
123804.000			-30.776			-2.798
123904.000			-30.777			-2.798
124004.000			-30.775			-2.798
124104.000			-30.775			-2.798
124204.000			-30.774			-2.798
124305.000			-30.773			-2.798
124404.000			-30.773			-2.798
124504.000			-30.773			-2.798
124605.000			-30.773			-2.798
124704.000			-30.771			-2.797
124805.000			-30.771			-2.797
124903.000			-30.770			-2.797
125004.000			-30.769			-2.797
125105.000			-30.768			-2.797
125204.000			-30.769			-2.797
125304.000			-30.768			-2.797
125405.000			-30.767			-2.797
125504.000			-30.767			-2.797
125603.000			-30.766			-2.797
125705.000			-30.766			-2.797
125804.000			-30.764			-2.797
125904.000			-30.764			-2.797
126005.000			-30.764			-2.797
126104.000			-30.764			-2.797
126204.000			-30.763			-2.797
126304.000			-30.762			-2.797
126404.000			-30.762			-2.797
126503.000			-30.761			-2.796
126605.000			-30.760			-2.796
126704.000			-30.760			-2.796
126804.000			-30.759			-2.796
126905.000			-30.759			-2.796
127004.000			-30.759			-2.796
127104.000			-30.758			-2.796
127204.000			-30.757			-2.796
127304.000			-30.757			-2.796
127404.000			-30.757			-2.796
127505.000			-30.757			-2.796
127604.000			-30.756			-2.796
127704.000			-30.755			-2.796
127805.000			-30.754			-2.796
127903.000			-30.754			-2.796
128005.000			-30.754			-2.796
128104.000			-30.754			-2.796
128204.000			-30.753			-2.796
128305.000			-30.753			-2.796
128404.000			-30.751			-2.796
128504.000			-30.752			-2.796
128605.000			-30.752			-2.796
128704.000			-30.749			-2.795
128803.000			-30.749			-2.795
128905.000			-30.748			-2.795
129004.000			-30.748			-2.795
129104.000			-30.747			-2.795
129205.000			-30.747			-2.795
129304.000			-30.746			-2.795
129404.000			-30.745			-2.795
129504.000			-30.745			-2.795
129604.000			-30.744			-2.795
129704.000			-30.745			-2.795
129805.000			-30.743			-2.795
129904.000			-30.743			-2.795
130004.000			-30.742			-2.795
130105.000			-30.742			-2.795
130203.000			-30.741			-2.795
130304.000			-30.741			-2.795
130405.000			-30.740			-2.795
130504.000			-30.740			-2.795
130604.000			-30.739			-2.794
130705.000			-30.739			-2.794
130804.000			-30.739			-2.794
130903.000			-30.738			-2.794
131005.000			-30.738			-2.794
131104.000			-30.738			-2.794
131205.000			-30.737			-2.794
131304.000			-30.736			-2.794
131404.000			-30.735			-2.794
131505.000			-30.734			-2.794
131604.000			-30.735			-2.794
131704.000			-30.735			-2.794
131804.000			-30.734			-2.794
131904.000			-30.732			-2.794
132004.000			-30.731			-2.794
132105.000			-30.731			-2.794
132204.000			-30.731			-2.794
132304.000			-30.731			-2.794
132405.000			-30.730			-2.794
132504.000			-30.729			-2.794
132604.000			-30.729			-2.794
132704.000			-30.728			-2.793
132804.000			-30.728			-2.793
132904.000			-30.727			-2.793
133005.000			-30.726			-2.793
133104.000			-30.727			-2.793
133204.000			-30.725			-2.793
133305.000			-30.725			-2.793
133404.000			-30.724			-2.793
133504.000			-30.724			-2.793
133604.000			-30.724			-2.793
133704.000			-30.723			-2.793
133804.000			-30.722			-2.793
133905.000			-30.722			-2.793
134004.000			-30.722			-2.793
134104.000			-30.721			-2.793
134205.000			-30.720			-2.793
134303.000			-30.720			-2.793
134405.000			-30.719			-2.793
134504.000			-30.719			-2.793
134604.000			-30.718			-2.793
134705.000			-30.718			-2.793
134804.000			-30.717			-2.792
134904.000			-30.717			-2.792
135005.000			-30.716			-2.792
135104.000			-30.716			-2.792
135203.000			-30.715			-2.792
135305.000			-30.715			-2.792
135404.000			-30.715			-2.792
135504.000			-30.715			-2.792
135605.000			-30.713			-2.792
135704.000			-30.712			-2.792
135804.000			-30.713			-2.792
135905.000			-30.713			-2.792
136004.000			-30.712			-2.792
136103.000			-30.711			-2.792
136205.000			-30.709			-2.792
136304.000			-30.710			-2.792
136404.000			-30.709			-2.792
136505.000			-30.709			-2.792
136604.000			-30.707			-2.792
136704.000			-30.707			-2.792
136804.000			-30.707			-2.792
136904.000			-30.706			-2.791
137003.000			-30.707			-2.792
137105.000			-30.705			-2.791
137204.000			-30.704			-2.791
137304.000			-30.703			-2.791
137405.000			-30.704			-2.791
137504.000			-30.703			-2.791
137605.000			-30.702			-2.791
137703.000			-30.702			-2.791
137804.000			-30.702			-2.791
137905.000			-30.702			-2.791
138004.000			-30.701			-2.791
138104.000			-30.701			-2.791
138205.000			-30.700			-2.791
138304.000			-30.699			-2.791
138404.000			-30.699			-2.791
138505.000			-30.698			-2.791
138603.000			-30.698			-2.791
138704.000			-30.697			-2.791
138805.000			-30.696			-2.791
138904.000			-30.697			-2.791
139004.000			-30.697			-2.791
139105.000			-30.695			-2.790
139204.000			-30.695			-2.790
139304.000			-30.694			-2.790
139405.000			-30.694			-2.790
139503.000			-30.693			-2.790
139604.000			-30.693			-2.790
139704.000			-30.692			-2.790
139804.000			-30.691			-2.790
139904.000			-30.691			-2.790
140005.000			-30.691			-2.790
140104.000			-30.690			-2.790
140204.000			-30.690			-2.790
140305.000			-30.689			-2.790
140403.000			-30.688			-2.790
140504.000			-30.689			-2.790
140603.000			-30.689			-2.790
140704.000			-30.688			-2.790
140805.000			-30.687			-2.790
140904.000			-30.686			-2.790
141004.000			-30.685			-2.790
141105.000			-30.685			-2.790
141204.000			-30.684			-2.789
141303.000			-30.684			-2.789
141405.000			-30.684			-2.789
141504.000			-30.684			-2.789
141604.000			-30.684			-2.789
141705.000			-30.681			-2.789
141804.000			-30.681			-2.789
141904.000			-30.681			-2.789
142005.000			-30.681			-2.789
142104.000			-30.680			-2.789
142203.000			-30.678			-2.789
142305.000			-30.679			-2.789
142404.000			-30.680			-2.789
142504.000			-30.680			-2.789
142605.000			-30.678			-2.789
142704.000			-30.678			-2.789
142804.000			-30.678			-2.789
142905.000			-30.676			-2.789
143004.000			-30.676			-2.789
143103.000			-30.676			-2.789
143205.000			-30.675			-2.789
143304.000			-30.675			-2.789
143404.000			-30.674			-2.789
143505.000			-30.674			-2.789
143604.000			-30.673			-2.788
143704.000			-30.671			-2.788
143804.000			-30.671			-2.788
143904.000			-30.671			-2.788
144003.000			-30.671			-2.788
144104.000			-30.670			-2.788
144204.000			-30.670			-2.788
144305.000			-30.668			-2.788
144404.000			-30.668			-2.788
144504.000			-30.669			-2.788
144605.000			-30.668			-2.788
144704.000			-30.667			-2.788
144804.000			-30.667			-2.788
144904.000			-30.667			-2.788
145004.000			-30.666			-2.788
145104.000			-30.666			-2.788
145205.000			-30.666			-2.788
145304.000			-30.665			-2.788
145404.000			-30.664			-2.788
145505.000			-30.664			-2.788
145604.000			-30.664			-2.788
145704.000			-30.663			-2.788
145804.000			-30.662			-2.787
145904.000			-30.662			-2.787
146004.000			-30.661			-2.787
146105.000			-30.661			-2.787
146204.000			-30.660			-2.787
146304.000			-30.660			-2.787
146405.000			-30.660			-2.787
146504.000			-30.659			-2.787
146604.000			-30.658			-2.787
146704.000			-30.657			-2.787
146804.000			-30.657			-2.787
146903.000			-30.658			-2.787
147005.000			-30.657			-2.787
147104.000			-30.657			-2.787
147205.000			-30.656			-2.787
147304.000			-30.656			-2.787
147404.000			-30.655			-2.787
147505.000			-30.655			-2.787
147603.000			-30.654			-2.787
147704.000			-30.653			-2.787
147804.000			-30.653			-2.787
147904.000			-30.652			-2.787
148004.000			-30.652			-2.787
148105.000			-30.652			-2.787
148204.000			-30.651			-2.786
148304.000			-30.651			-2.786
148405.000			-30.650			-2.786
148503.000			-30.649			-2.786
148604.000			-30.649			-2.786
148704.000			-30.648			-2.786
148804.000			-30.649			-2.786
148904.000			-30.649			-2.786
149005.000			-30.647			-2.786
149104.000			-30.646			-2.786
149204.000			-30.645			-2.786
149305.000			-30.646			-2.786
149403.000			-30.644			-2.786
149504.000			-30.644			-2.786
149604.000			-30.645			-2.786
149704.000			-30.644			-2.786
149804.000			-30.644			-2.786
149905.000			-30.644			-2.786
150004.000			-30.644			-2.786
150104.000			-30.642			-2.786
150205.000			-30.642			-2.786
150303.000			-30.642			-2.786
150405.000			-30.641			-2.786
150503.000			-30.640			-2.785
150604.000			-30.640			-2.785
150705.000			-30.640			-2.785
150804.000			-30.640			-2.785
150904.000			-30.638			-2.785
151005.000			-30.637			-2.785
151104.000			-30.636			-2.785
151203.000			-30.637			-2.785
151305.000			-30.637			-2.785
151403.000			-30.637			-2.785
151504.000			-30.636			-2.785
151605.000			-30.635			-2.785
151704.000			-30.635			-2.785
151804.000			-30.635			-2.785
151905.000			-30.634			-2.785
152004.000			-30.633			-2.785
152103.000			-30.632			-2.785
152205.000			-30.633			-2.785
152304.000			-30.632			-2.785
152404.000			-30.631			-2.785
152505.000			-30.630			-2.785
152604.000			-30.629			-2.784
152704.000			-30.630			-2.785
152805.000			-30.630			-2.785
152904.000			-30.629			-2.784
153003.000			-30.628			-2.784
153105.000			-30.628			-2.784
153204.000			-30.628			-2.784
153304.000			-30.628			-2.784
153405.000			-30.627			-2.784
153504.000			-30.626			-2.784
153605.000			-30.625			-2.784
153704.000			-30.625			-2.784
153804.000			-30.624			-2.784
153904.000			-30.624			-2.784
154004.000			-30.624			-2.784
154104.000			-30.623			-2.784
154205.000			-30.625			-2.784
154304.000			-30.624			-2.784
154404.000			-30.622			-2.784
154505.000			-30.622			-2.784
154603.000			-30.621			-2.784
154704.000			-30.620			-2.784
154804.000			-30.619			-2.784
154904.000			-30.619			-2.784
155004.000			-30.619			-2.784
155105.000			-30.619			-2.784
155204.000			-30.618			-2.783
155304.000			-30.618			-2.783
155405.000			-30.618			-2.783
155503.000			-30.617			-2.783
155604.000			-30.616			-2.783
155705.000			-30.617			-2.783
155804.000			-30.615			-2.783
155904.000			-30.614			-2.783
156005.000			-30.614			-2.783
156104.000			-30.614			-2.783
156204.000			-30.613			-2.783
156305.000			-30.613			-2.783
156403.000			-30.612			-2.783
156504.000			-30.613			-2.783
156605.000			-30.612			-2.783
156704.000			-30.611			-2.783
156805.000			-30.611			-2.783
156904.000			-30.611			-2.783
157004.000			-30.610			-2.783
157105.000			-30.609			-2.783
157204.000			-30.609			-2.783
157303.000			-30.608			-2.783
157405.000			-30.608			-2.783
157504.000			-30.607			-2.782
157604.000			-30.608			-2.783
157705.000			-30.607			-2.782
157804.000			-30.606			-2.782
157904.000			-30.607			-2.782
158005.000			-30.605			-2.782
158104.000			-30.605			-2.782
158203.000			-30.605			-2.782
158305.000			-30.605			-2.782
158404.000			-30.604			-2.782
158504.000			-30.603			-2.782
158605.000			-30.603			-2.782
158704.000			-30.602			-2.782
158804.000			-30.602			-2.782
158904.000			-30.602			-2.782
159004.000			-30.602			-2.782
159103.000			-30.601			-2.782
159205.000			-30.600			-2.782
159304.000			-30.600			-2.782
159404.000			-30.600			-2.782
159505.000			-30.598			-2.782
159604.000			-30.598			-2.782
159704.000			-30.597			-2.782
159804.000			-30.597			-2.782
159904.000			-30.597			-2.782
160003.000			-30.597			-2.782
160104.000			-30.597			-2.782
160204.000			-30.596			-2.781
160305.000			-30.595			-2.781
160404.000			-30.594			-2.781
160504.000			-30.595			-2.781
160605.000			-30.594			-2.781
160704.000			-30.593			-2.781
160804.000			-30.594			-2.781
160904.000			-30.593			-2.781
161004.000			-30.592			-2.781
161104.000			-30.592			-2.781
161205.000			-30.591			-2.781
161304.000			-30.591			-2.781
161404.000			-30.591			-2.781
161505.000			-30.590			-2.781
161603.000			-30.589			-2.781
161704.000			-30.589			-2.781
161804.000			-30.588			-2.781
161904.000			-30.588			-2.781
162004.000			-30.588			-2.781
162105.000			-30.588			-2.781
162204.000			-30.587			-2.781
162304.000			-30.587			-2.781
162405.000			-30.586			-2.781
162503.000			-30.585			-2.780
162604.000			-30.584			-2.780
162704.000			-30.584			-2.780
162804.000			-30.584			-2.780
162904.000			-30.584			-2.780
163004.000			-30.584			-2.780
163104.000			-30.584			-2.780
163205.000			-30.583			-2.780
163304.000			-30.581			-2.780
163403.000			-30.580			-2.780
163505.000			-30.581			-2.780
163604.000			-30.581			-2.780
163704.000			-30.580			-2.780
163805.000			-30.579			-2.780
163904.000			-30.579			-2.780
164004.000			-30.579			-2.780
164105.000			-30.579			-2.780
164204.000			-30.578			-2.780
164303.000			-30.578			-2.780
164405.000			-30.577			-2.780
164504.000			-30.576			-2.780
164604.000			-30.577			-2.780
164705.000			-30.576			-2.780
164804.000			-30.575			-2.780
164904.000			-30.575			-2.780
165005.000			-30.576			-2.780
165104.000			-30.575			-2.780
165203.000			-30.574			-2.779
165305.000			-30.574			-2.779
165404.000			-30.575			-2.780
165504.000			-30.573			-2.779
165605.000			-30.571			-2.779
165704.000			-30.572			-2.779
165804.000			-30.571			-2.779
165905.000			-30.571			-2.779
166004.000			-30.571			-2.779
166103.000			-30.570			-2.779
166205.000			-30.568			-2.779
166303.000			-30.568			-2.779
166405.000			-30.569			-2.779
166504.000			-30.568			-2.779
166604.000			-30.567			-2.779
166705.000			-30.567			-2.779
166804.000			-30.567			-2.779
166904.000			-30.566			-2.779
167005.000			-30.566			-2.779
167104.000			-30.564			-2.779
167203.000			-30.565			-2.779
167305.000			-30.564			-2.779
167404.000			-30.565			-2.779
167504.000			-30.564			-2.779
167605.000			-30.564			-2.779
167704.000			-30.563			-2.778
167804.000			-30.562			-2.778
167905.000			-30.562			-2.778
168004.000			-30.562			-2.778
168103.000			-30.562			-2.778
168205.000			-30.561			-2.778
168304.000			-30.560			-2.778
168404.000			-30.560			-2.778
168505.000			-30.560			-2.778
168604.000			-30.560			-2.778
168704.000			-30.559			-2.778
168805.000			-30.559			-2.778
168904.000			-30.559			-2.778
169003.000			-30.558			-2.778
169105.000			-30.558			-2.778
169204.000			-30.556			-2.778
169304.000			-30.556			-2.778
169405.000			-30.555			-2.778
169504.000			-30.555			-2.778
169605.000			-30.555			-2.778
169704.000			-30.553			-2.778
169804.000			-30.554			-2.778
169904.000			-30.554			-2.778
170004.000			-30.553			-2.778
170103.000			-30.553			-2.778
170205.000			-30.552			-2.777
170304.000			-30.552			-2.777
170404.000			-30.551			-2.777
170505.000			-30.551			-2.777
170604.000			-30.551			-2.777
170704.000			-30.550			-2.777
170804.000			-30.549			-2.777
170904.000			-30.549			-2.777
171004.000			-30.549			-2.777
171105.000			-30.549			-2.777
171204.000			-30.548			-2.777
171304.000			-30.548			-2.777
171405.000			-30.547			-2.777
171504.000			-30.546			-2.777
171604.000			-30.547			-2.777
171704.000			-30.546			-2.777
171804.000			-30.545			-2.777
171904.000			-30.545			-2.777
172005.000			-30.545			-2.777
172104.000			-30.544			-2.777
172204.000			-30.543			-2.777
172305.000			-30.543			-2.777
172404.000			-30.543			-2.777
172504.000			-30.543			-2.777
172603.000			-30.542			-2.777
172704.000			-30.542			-2.777
172805.000			-30.542			-2.777
172904.000			-30.542			-2.777
173004.000			-30.541			-2.776
173105.000			-30.541			-2.776
173204.000			-30.540			-2.776
173304.000			-30.540			-2.776
173405.000			-30.539			-2.776
173503.000			-30.538			-2.776
173604.000			-30.537			-2.776
173705.000			-30.537			-2.776
173804.000			-30.539			-2.776
173904.000			-30.538			-2.776
174005.000			-30.536			-2.776
174104.000			-30.536			-2.776
174204.000			-30.536			-2.776
174305.000			-30.535			-2.776
174403.000			-30.535			-2.776
174504.000			-30.534			-2.776
174605.000			-30.534			-2.776
174704.000			-30.534			-2.776
174804.000			-30.534			-2.776
174905.000			-30.533			-2.776
175004.000			-30.532			-2.776
175104.000			-30.532			-2.776
175205.000			-30.531			-2.776
175303.000			-30.532			-2.776
175404.000			-30.530			-2.775
175505.000			-30.530			-2.775
175604.000			-30.530			-2.775
175704.000			-30.530			-2.775
175804.000			-30.530			-2.775
175904.000			-30.529			-2.775
176005.000			-30.528			-2.775
176104.000			-30.528			-2.775
176203.000			-30.526			-2.775
176305.000			-30.527			-2.775
176404.000			-30.527			-2.775
176504.000			-30.526			-2.775
176605.000			-30.526			-2.775
176704.000			-30.525			-2.775
176804.000			-30.525			-2.775
176904.000			-30.524			-2.775
177004.000			-30.525			-2.775
177103.000			-30.524			-2.775
177205.000			-30.522			-2.775
177304.000			-30.522			-2.775
177404.000			-30.523			-2.775
177505.000			-30.522			-2.775
177604.000			-30.521			-2.775
177704.000			-30.521			-2.775
177804.000			-30.521			-2.775
177904.000			-30.521			-2.775
178004.000			-30.521			-2.775
178105.000			-30.521			-2.775
178204.000			-30.520			-2.775
178304.000			-30.519			-2.774
178405.000			-30.517			-2.774
178504.000			-30.518			-2.774
178604.000			-30.518			-2.774
178704.000			-30.517			-2.774
178804.000			-30.516			-2.774
178903.000			-30.516			-2.774
179005.000			-30.515			-2.774
179104.000			-30.516			-2.774
179205.000			-30.516			-2.774
179304.000			-30.514			-2.774
179404.000			-30.515			-2.774
179505.000			-30.515			-2.774
179603.000			-30.514			-2.774
179704.000			-30.514			-2.774
179804.000			-30.514			-2.774
179904.000			-30.513			-2.774
180004.000			-30.513			-2.774
180105.000			-30.512			-2.774
180204.000			-30.511			-2.774
180304.000			-30.511			-2.774
180405.000			-30.511			-2.774
180503.000			-30.510			-2.774
180604.000			-30.509			-2.774
180705.000			-30.509			-2.774
180804.000			-30.509			-2.774
180904.000			-30.508			-2.773
181005.000			-30.509			-2.774
181104.000			-30.509			-2.774
181204.000			-30.508			-2.773
181305.000			-30.506			-2.773
181403.000			-30.506			-2.773
181504.000			-30.507			-2.773
181605.000			-30.506			-2.773
181704.000			-30.506			-2.773
181804.000			-30.505			-2.773
181905.000			-30.504			-2.773
182004.000			-30.504			-2.773
182103.000			-30.503			-2.773
182205.000			-30.502			-2.773
182304.000			-30.502			-2.773
182405.000			-30.502			-2.773
182504.000			-30.502			-2.773
182604.000			-30.502			-2.773
182705.000			-30.502			-2.773
182804.000			-30.501			-2.773
182904.000			-30.500			-2.773
183004.000			-30.500			-2.773
183104.000			-30.499			-2.773
183204.000			-30.500			-2.773
183305.000			-30.500			-2.773
183404.000			-30.500			-2.773
183504.000			-30.498			-2.773
183605.000			-30.497			-2.772
183704.000			-30.498			-2.773
183804.000			-30.498			-2.773
183904.000			-30.497			-2.772
184004.000			-30.498			-2.773
184103.000			-30.496			-2.772
184205.000			-30.495			-2.772
184304.000			-30.495			-2.772
184404.000			-30.494			-2.772
184505.000			-30.494			-2.772
184604.000			-30.494			-2.772
184704.000			-30.494			-2.772
184804.000			-30.493			-2.772
184904.000			-30.492			-2.772
185003.000			-30.491			-2.772
185105.000			-30.492			-2.772
185204.000			-30.492			-2.772
185304.000			-30.492			-2.772
185405.000			-30.491			-2.772
185504.000			-30.491			-2.772
185605.000			-30.490			-2.772
185704.000			-30.489			-2.772
185804.000			-30.489			-2.772
185904.000			-30.489			-2.772
186004.000			-30.489			-2.772
186104.000			-30.488			-2.772
186205.000			-30.487			-2.772
186304.000			-30.486			-2.771
186404.000			-30.487			-2.772
186505.000			-30.487			-2.772
186604.000			-30.487			-2.772
186704.000			-30.486			-2.771
186804.000			-30.486			-2.771
186904.000			-30.486			-2.771
187003.000			-30.485			-2.771
187105.000			-30.483			-2.771
187204.000			-30.484			-2.771
187304.000			-30.483			-2.771
187405.000			-30.483			-2.771
187504.000			-30.482			-2.771
187604.000			-30.482			-2.771
187704.000			-30.481			-2.771
187804.000			-30.481			-2.771
187903.000			-30.480			-2.771
188005.000			-30.480			-2.771
188104.000			-30.480			-2.771
188204.000			-30.480			-2.771
188305.000			-30.480			-2.771
188404.000			-30.480			-2.771
188504.000			-30.480			-2.771
188604.000			-30.478			-2.771
188704.000			-30.477			-2.771
188803.000			-30.478			-2.771
188904.000			-30.477			-2.771
189004.000			-30.477			-2.771
189105.000			-30.476			-2.771
189204.000			-30.475			-2.770
189304.000			-30.476			-2.771
189405.000			-30.475			-2.770
189504.000			-30.474			-2.770
189604.000			-30.474			-2.770
189704.000			-30.474			-2.770
189804.000			-30.472			-2.770
189903.000			-30.473			-2.770
190005.000			-30.473			-2.770
190104.000			-30.472			-2.770
190204.000			-30.471			-2.770
190305.000			-30.472			-2.770
190404.000			-30.472			-2.770
190504.000			-30.470			-2.770
190604.000			-30.470			-2.770
190704.000			-30.470			-2.770
190804.000			-30.469			-2.770
190905.000			-30.468			-2.770
191004.000			-30.468			-2.770
191104.000			-30.468			-2.770
191205.000			-30.468			-2.770
191304.000			-30.468			-2.770
191404.000			-30.468			-2.770
191504.000			-30.468			-2.770
191604.000			-30.467			-2.770
191703.000			-30.465			-2.770
191805.000			-30.466			-2.770
191904.000			-30.466			-2.770
192005.000			-30.466			-2.770
192104.000			-30.465			-2.770
192204.000			-30.464			-2.769
192305.000			-30.463			-2.769
192403.000			-30.463			-2.769
192504.000			-30.463			-2.769
192604.000			-30.462			-2.769
192704.000			-30.462			-2.769
192804.000			-30.462			-2.769
192905.000			-30.461			-2.769
193004.000			-30.461			-2.769
193104.000			-30.461			-2.769
193205.000			-30.461			-2.769
193303.000			-30.461			-2.769
193404.000			-30.460			-2.769
193504.000			-30.460			-2.769
193604.000			-30.458			-2.769
193704.000			-30.457			-2.769
193805.000			-30.457			-2.769
193904.000			-30.458			-2.769
194004.000			-30.458			-2.769
194105.000			-30.457			-2.769
194203.000			-30.456			-2.769
194304.000			-30.456			-2.769
194404.000			-30.456			-2.769
194504.000			-30.456			-2.769
194604.000			-30.456			-2.769
194705.000			-30.455			-2.769
194804.000			-30.454			-2.769
194904.000			-30.453			-2.768
195005.000			-30.453			-2.768
195103.000			-30.454			-2.769
195205.000			-30.454			-2.769
195303.000			-30.454			-2.769
195404.000			-30.452			-2.768
195505.000			-30.452			-2.768
195604.000			-30.453			-2.768
195704.000			-30.452			-2.768
195805.000			-30.451			-2.768
195904.000			-30.451			-2.768
196003.000			-30.450			-2.768
196105.000			-30.449			-2.768
196204.000			-30.449			-2.768
196304.000			-30.449			-2.768
196405.000			-30.449			-2.768
196504.000			-30.447			-2.768
196604.000			-30.448			-2.768
196705.000			-30.448			-2.768
196804.000			-30.448			-2.768
196903.000			-30.447			-2.768
197005.000			-30.445			-2.768
197103.000			-30.445			-2.768
197204.000			-30.444			-2.768
197305.000			-30.445			-2.768
197404.000			-30.444			-2.768
197504.000			-30.444			-2.768
197605.000			-30.444			-2.768
197704.000			-30.443			-2.768
197803.000			-30.443			-2.768
197905.000			-30.444			-2.768
198003.000			-30.444			-2.768
198104.000			-30.444			-2.768
198205.000			-30.443			-2.768
198304.000			-30.441			-2.767
198405.000			-30.441			-2.767
198504.000			-30.441			-2.767
198604.000			-30.440			-2.767
198704.000			-30.440			-2.767
198804.000			-30.439			-2.767
198903.000			-30.440			-2.767
199005.000			-30.440			-2.767
199104.000			-30.440			-2.767
199204.000			-30.439			-2.767
199305.000			-30.438			-2.767
199404.000			-30.438			-2.767
199504.000			-30.437			-2.767
199605.000			-30.437			-2.767
199704.000			-30.436			-2.767
199803.000			-30.436			-2.767
199905.000			-30.436			-2.767
200004.000			-30.436			-2.767
200104.000			-30.436			-2.767
200205.000			-30.434			-2.767
200304.000			-30.434			-2.767
200404.000			-30.433			-2.767
200504.000			-30.433			-2.767
200604.000			-30.432			-2.767
200703.000			-30.432			-2.767
200805.000			-30.431			-2.766
200904.000			-30.432			-2.767
201004.000			-30.432			-2.767
201105.000			-30.431			-2.766
201204.000			-30.431			-2.766
201304.000			-30.431			-2.766
201403.000			-30.431			-2.766
201504.000			-30.430			-2.766
201605.000			-30.430			-2.766
201704.000			-30.429			-2.766
201804.000			-30.428			-2.766
201905.000			-30.429			-2.766
202004.000			-30.429			-2.766
202104.000			-30.428			-2.766
202205.000			-30.427			-2.766
202303.000			-30.428			-2.766
202404.000			-30.428			-2.766
202505.000			-30.426			-2.766
202604.000			-30.425			-2.766
202704.000			-30.425			-2.766
202805.000			-30.425			-2.766
202904.000			-30.425			-2.766
203003.000			-30.426			-2.766
203105.000			-30.424			-2.766
203204.000			-30.424			-2.766
203304.000			-30.423			-2.766
203405.000			-30.422			-2.766
203504.000			-30.422			-2.766
203604.000			-30.422			-2.766
203705.000			-30.421			-2.766
203804.000			-30.421			-2.766
203903.000			-30.421			-2.766
204005.000			-30.421			-2.766
204104.000			-30.421			-2.766
204204.000			-30.420			-2.765
204305.000			-30.420			-2.765
204404.000			-30.419			-2.765
204504.000			-30.419			-2.765
204603.000			-30.420			-2.765
204704.000			-30.419			-2.765
204805.000			-30.418			-2.765
204904.000			-30.417			-2.765
205004.000			-30.418			-2.765
205105.000			-30.418			-2.765
205204.000			-30.416			-2.765
205304.000			-30.415			-2.765
205405.000			-30.416			-2.765
205503.000			-30.416			-2.765
205604.000			-30.416			-2.765
205705.000			-30.415			-2.765
205804.000			-30.415			-2.765
205904.000			-30.415			-2.765
206005.000			-30.415			-2.765
206104.000			-30.414			-2.765
206203.000			-30.414			-2.765
206305.000			-30.413			-2.765
206404.000			-30.413			-2.765
206504.000			-30.412			-2.765
206605.000			-30.412			-2.765
206704.000			-30.412			-2.765
206804.000			-30.412			-2.765
206905.000			-30.411			-2.765
207004.000			-30.410			-2.765
207103.000			-30.410			-2.765
207205.000			-30.409			-2.764
207304.000			-30.409			-2.764
207404.000			-30.409			-2.764
207505.000			-30.409			-2.764
207604.000			-30.409			-2.764
207704.000			-30.408			-2.764
207804.000			-30.408			-2.764
207904.000			-30.408			-2.764
208003.000			-30.407			-2.764
208104.000			-30.407			-2.764
208204.000			-30.406			-2.764
208305.000			-30.406			-2.764
208404.000			-30.406			-2.764
208504.000			-30.406			-2.764
208605.000			-30.406			-2.764
208703.000			-30.405			-2.764
208804.000			-30.404			-2.764
208904.000			-30.405			-2.764
209004.000			-30.404			-2.764
209104.000			-30.403			-2.764
209205.000			-30.402			-2.764
209304.000			-30.401			-2.764
209404.000			-30.401			-2.764
209505.000			-30.402			-2.764
209603.000			-30.402			-2.764
209704.000			-30.402			-2.764
209805.000			-30.401			-2.764
209904.000			-30.401			-2.764
210004.000			-30.401			-2.764
210105.000			-30.400			-2.764
210204.000			-30.399			-2.764
210303.000			-30.399			-2.764
210405.000			-30.399			-2.764
210503.000			-30.398			-2.763
210604.000			-30.398			-2.763
210705.000			-30.397			-2.763
210804.000			-30.397			-2.763
210904.000			-30.396			-2.763
211004.000			-30.397			-2.763
211104.000			-30.396			-2.763
211203.000			-30.396			-2.763
211304.000			-30.396			-2.763
211404.000			-30.395			-2.763
211505.000			-30.395			-2.763
211604.000			-30.394			-2.763
211704.000			-30.394			-2.763
211805.000			-30.393			-2.763
211904.000			-30.393			-2.763
212004.000			-30.394			-2.763
212104.000			-30.393			-2.763
212204.000			-30.393			-2.763
212304.000			-30.394			-2.763
212405.000			-30.393			-2.763
212504.000			-30.392			-2.763
212604.000			-30.391			-2.763
212705.000			-30.390			-2.763
212804.000			-30.389			-2.763
212904.000			-30.390			-2.763
213004.000			-30.390			-2.763
213104.000			-30.390			-2.763
213204.000			-30.389			-2.763
213305.000			-30.389			-2.763
213404.000			-30.388			-2.763
213504.000			-30.388			-2.763
213605.000			-30.388			-2.763
213703.000			-30.388			-2.763
213804.000			-30.387			-2.762
213904.000			-30.387			-2.762
214004.000			-30.386			-2.762
214104.000			-30.386			-2.762
214204.000			-30.386			-2.762
214304.000			-30.386			-2.762
214405.000			-30.385			-2.762
214504.000			-30.386			-2.762
214603.000			-30.386			-2.762
214705.000			-30.384			-2.762
214803.000			-30.384			-2.762
214904.000			-30.384			-2.762
215005.000			-30.383			-2.762
215104.000			-30.382			-2.762
215204.000			-30.383			-2.762
215305.000			-30.382			-2.762
215404.000			-30.382			-2.762
215503.000			-30.382			-2.762
215605.000			-30.381			-2.762
215704.000			-30.381			-2.762
215804.000			-30.380			-2.762
215905.000			-30.380			-2.762
216004.000			-30.380			-2.762
216104.000			-30.379			-2.762
216205.000			-30.379			-2.762
216304.000			-30.378			-2.762
216403.000			-30.377			-2.762
216505.000			-30.377			-2.762
216604.000			-30.377			-2.762
216704.000			-30.377			-2.762
216805.000			-30.376			-2.761
216904.000			-30.377			-2.762
217004.000			-30.376			-2.761
217105.000			-30.376			-2.761
217204.000			-30.377			-2.762
217303.000			-30.375			-2.761
217405.000			-30.375			-2.761
217504.000			-30.375			-2.761
217605.000			-30.374			-2.761
217704.000			-30.373			-2.761
217804.000			-30.373			-2.761
217905.000			-30.374			-2.761
218004.000			-30.373			-2.761
218104.000			-30.373			-2.761
218204.000			-30.372			-2.761
218304.000			-30.372			-2.761
218404.000			-30.372			-2.761
218505.000			-30.373			-2.761
218604.000			-30.371			-2.761
218704.000			-30.370			-2.761
218805.000			-30.370			-2.761
218903.000			-30.370			-2.761
219004.000			-30.368			-2.761
219104.000			-30.369			-2.761
219204.000			-30.370			-2.761
219304.000			-30.369			-2.761
219405.000			-30.367			-2.761
219504.000			-30.367			-2.761
219604.000			-30.367			-2.761
219705.000			-30.368			-2.761
219804.000			-30.367			-2.761
219904.000			-30.366			-2.761
220004.000			-30.366			-2.761
220104.000			-30.367			-2.761
220204.000			-30.367			-2.761
220305.000			-30.365			-2.760
220404.000			-30.365			-2.760
220504.000			-30.364			-2.760
220605.000			-30.363			-2.760
220703.000			-30.364			-2.760
220805.000			-30.363			-2.760
220903.000			-30.364			-2.760
221004.000			-30.364			-2.760
221105.000			-30.363			-2.760
221204.000			-30.362			-2.760
221304.000			-30.361			-2.760
221405.000			-30.361			-2.760
221504.000			-30.361			-2.760
221603.000			-30.361			-2.760
221705.000			-30.361			-2.760
221804.000			-30.361			-2.760
221904.000			-30.359			-2.760
222005.000			-30.359			-2.760
222104.000			-30.360			-2.760
222204.000			-30.359			-2.760
222304.000			-30.359			-2.760
222404.000			-30.358			-2.760
222503.000			-30.358			-2.760
222605.000			-30.358			-2.760
222704.000			-30.358			-2.760
222804.000			-30.357			-2.760
222905.000			-30.356			-2.760
223004.000			-30.357			-2.760
223104.000			-30.357			-2.760
223204.000			-30.356			-2.760
223304.000			-30.356			-2.760
223403.000			-30.355			-2.760
223505.000			-30.354			-2.759
223604.000			-30.354			-2.759
223704.000			-30.353			-2.759
223805.000			-30.354			-2.759
223904.000			-30.354			-2.759
224005.000			-30.353			-2.759
224103.000			-30.353			-2.759
224204.000			-30.354			-2.759
224305.000			-30.353			-2.759
224404.000			-30.352			-2.759
224504.000			-30.352			-2.759
224605.000			-30.352			-2.759
224704.000			-30.352			-2.759
224804.000			-30.351			-2.759
224905.000			-30.351			-2.759
225003.000			-30.350			-2.759
225104.000			-30.349			-2.759
225205.000			-30.348			-2.759
225304.000			-30.348			-2.759
225404.000			-30.348			-2.759
225505.000			-30.348			-2.759
225604.000			-30.349			-2.759
225703.000			-30.347			-2.759
225805.000			-30.347			-2.759
225903.000			-30.347			-2.759
226004.000			-30.347			-2.759
226105.000			-30.346			-2.759
226204.000			-30.345			-2.759
226304.000			-30.346			-2.759
226405.000			-30.346			-2.759
226504.000			-30.345			-2.759
226603.000			-30.345			-2.759
226705.000			-30.344			-2.759
226804.000			-30.346			-2.759
226904.000			-30.344			-2.759
227005.000			-30.343			-2.758
227104.000			-30.343			-2.758
227205.000			-30.344			-2.759
227304.000			-30.343			-2.758
227404.000			-30.342			-2.758
227504.000			-30.340			-2.758
227604.000			-30.340			-2.758
227704.000			-30.340			-2.758
227805.000			-30.340			-2.758
227904.000			-30.341			-2.758
228004.000			-30.341			-2.758
228105.000			-30.341			-2.758
228204.000			-30.340			-2.758
228304.000			-30.339			-2.758
228404.000			-30.339			-2.758
228504.000			-30.338			-2.758
228604.000			-30.338			-2.758
228705.000			-30.337			-2.758
228804.000			-30.338			-2.758
228904.000			-30.338			-2.758
229005.000			-30.337			-2.758
229104.000			-30.336			-2.758
229204.000			-30.337			-2.758
229304.000			-30.336			-2.758
229404.000			-30.336			-2.758
229504.000			-30.336			-2.758
229605.000			-30.335			-2.758
229704.000			-30.335			-2.758
229804.000			-30.334			-2.758
229905.000			-30.335			-2.758
230004.000			-30.334			-2.758
230104.000			-30.334			-2.758
230203.000			-30.333			-2.758
230304.000			-30.333			-2.758
230405.000			-30.333			-2.758
230504.000			-30.333			-2.758
230604.000			-30.332			-2.757
230705.000			-30.331			-2.757
230804.000			-30.332			-2.757
230903.000			-30.331			-2.757
231005.000			-30.331			-2.757
231104.000			-30.330			-2.757
231204.000			-30.330			-2.757
231305.000			-30.329			-2.757
231404.000			-30.329			-2.757
231504.000			-30.329			-2.757
231604.000			-30.329			-2.757
231704.000			-30.328			-2.757
231803.000			-30.328			-2.757
231905.000			-30.328			-2.757
232004.000			-30.328			-2.757
232104.000			-30.327			-2.757
232205.000			-30.327			-2.757
232304.000			-30.327			-2.757
232404.000			-30.326			-2.757
232504.000			-30.326			-2.757
232604.000			-30.325			-2.757
232704.000			-30.326			-2.757
232805.000			-30.325			-2.757
232904.000			-30.324			-2.757
233004.000			-30.325			-2.757
233105.000			-30.324			-2.757
233204.000			-30.324			-2.757
233304.000			-30.323			-2.757
233403.000			-30.324			-2.757
233504.000			-30.323			-2.757
233605.000			-30.323			-2.757
233704.000			-30.322			-2.757
233804.000			-30.321			-2.756
233905.000			-30.320			-2.756
234004.000			-30.321			-2.756
234103.000			-30.321			-2.756
234205.000			-30.321			-2.756
234304.000			-30.320			-2.756
234404.000			-30.320			-2.756
234505.000			-30.321			-2.756
234604.000			-30.320			-2.756
234704.000			-30.319			-2.756
234805.000			-30.319			-2.756
234904.000			-30.317			-2.756
235003.000			-30.318			-2.756
235105.000			-30.317			-2.756
235204.000			-30.318			-2.756
235304.000			-30.317			-2.756
235405.000			-30.317			-2.756
235504.000			-30.316			-2.756
235604.000			-30.316			-2.756
235704.000			-30.316			-2.756
235804.000			-30.315			-2.756
235903.000			-30.316			-2.756
236005.000			-30.316			-2.756
236104.000			-30.315			-2.756
236204.000			-30.315			-2.756
236305.000			-30.315			-2.756
236404.000			-30.314			-2.756
236504.000			-30.314			-2.756
236603.000			-30.314			-2.756
236704.000			-30.313			-2.756
236803.000			-30.312			-2.756
236904.000			-30.311			-2.756
237004.000			-30.312			-2.756
237105.000			-30.311			-2.756
237204.000			-30.312			-2.756
237304.000			-30.311			-2.756
237405.000			-30.311			-2.756
237503.000			-30.310			-2.755
237604.000			-30.308			-2.755
237705.000			-30.310			-2.755
237804.000			-30.309			-2.755
237904.000			-30.309			-2.755
238005.000			-30.309			-2.755
238104.000			-30.309			-2.755
238204.000			-30.309			-2.755
238305.000			-30.309			-2.755
238403.000			-30.308			-2.755
238504.000			-30.307			-2.755
238605.000			-30.307			-2.755
238704.000			-30.307			-2.755
238804.000			-30.307			-2.755
238905.000			-30.306			-2.755
239004.000			-30.307			-2.755
239103.000			-30.306			-2.755
239205.000			-30.305			-2.755
239303.000			-30.305			-2.755
239404.000			-30.305			-2.755
239505.000			-30.304			-2.755
239604.000			-30.303			-2.755
239704.000			-30.303			-2.755
239804.000			-30.303			-2.755
239904.000			-30.304			-2.755
240003.000			-30.303			-2.755
240104.000			-30.303			-2.755
240203.000			-30.302			-2.755
240305.000			-30.302			-2.755
240404.000			-30.301			-2.755
240504.000			-30.300			-2.755
240605.000			-30.301			-2.755
240704.000			-30.302			-2.755
240804.000			-30.300			-2.755
240904.000			-30.300			-2.755
241004.000			-30.300			-2.755
241104.000			-30.299			-2.754
241205.000			-30.299			-2.754
241304.000			-30.298			-2.754
241404.000			-30.297			-2.754
241505.000			-30.299			-2.754
241604.000			-30.299			-2.754
241704.000			-30.298			-2.754
241804.000			-30.297			-2.754
241904.000			-30.297			-2.754
242004.000			-30.297			-2.754
242105.000			-30.296			-2.754
242204.000			-30.297			-2.754
242304.000			-30.296			-2.754
242405.000			-30.296			-2.754
242504.000			-30.296			-2.754
242604.000			-30.295			-2.754
242704.000			-30.294			-2.754
242804.000			-30.294			-2.754
242904.000			-30.294			-2.754
243004.000			-30.294			-2.754
243104.000			-30.294			-2.754
243205.000			-30.293			-2.754
243304.000			-30.292			-2.754
243404.000			-30.292			-2.754
243505.000			-30.292			-2.754
243603.000			-30.292			-2.754
243704.000			-30.291			-2.754
243805.000			-30.291			-2.754
243904.000			-30.291			-2.754
244004.000			-30.292			-2.754
244105.000			-30.290			-2.754
244204.000			-30.289			-2.754
244304.000			-30.289			-2.754
244405.000			-30.289			-2.754
244503.000			-30.289			-2.754
244604.000			-30.289			-2.754
244705.000			-30.289			-2.754
244804.000			-30.288			-2.753
244904.000			-30.287			-2.753
245005.000			-30.287			-2.753
245104.000			-30.287			-2.753
245204.000			-30.287			-2.753
245305.000			-30.286			-2.753
245403.000			-30.286			-2.753
245504.000			-30.286			-2.753
245605.000			-30.286			-2.753
245704.000			-30.286			-2.753
245804.000			-30.285			-2.753
245905.000			-30.286			-2.753
246004.000			-30.285			-2.753
246104.000			-30.286			-2.753
246205.000			-30.285			-2.753
246303.000			-30.284			-2.753
246405.000			-30.283			-2.753
246504.000			-30.283			-2.753
246604.000			-30.283			-2.753
246705.000			-30.281			-2.753
246804.000			-30.282			-2.753
246904.000			-30.282			-2.753
247005.000			-30.282			-2.753
247104.000			-30.282			-2.753
247203.000			-30.282			-2.753
247305.000			-30.281			-2.753
247404.000			-30.280			-2.753
247504.000			-30.279			-2.753
247605.000			-30.279			-2.753
247704.000			-30.280			-2.753
247804.000			-30.279			-2.753
247905.000			-30.279			-2.753
248004.000			-30.279			-2.753
248103.000			-30.277			-2.752
248205.000			-30.277			-2.752
248304.000			-30.278			-2.753
248404.000			-30.278			-2.753
248505.000			-30.278			-2.753
248604.000			-30.277			-2.752
248704.000			-30.276			-2.752
248805.000			-30.276			-2.752
248904.000			-30.275			-2.752
249003.000			-30.274			-2.752
249105.000			-30.275			-2.752
249204.000			-30.276			-2.752
249304.000			-30.276			-2.752
249405.000			-30.275			-2.752
249504.000			-30.273			-2.752
249605.000			-30.273			-2.752
249704.000			-30.273			-2.752
249804.000			-30.273			-2.752
249904.000			-30.273			-2.752
250004.000			-30.272			-2.752
250103.000			-30.271			-2.752
250205.000			-30.271			-2.752
250304.000			-30.271			-2.752
250404.000			-30.272			-2.752
250505.000			-30.271			-2.752
250604.000			-30.270			-2.752
250704.000			-30.271			-2.752
250804.000			-30.270			-2.752
250904.000			-30.270			-2.752
251004.000			-30.270			-2.752
251105.000			-30.269			-2.752
251204.000			-30.270			-2.752
251304.000			-30.268			-2.752
251405.000			-30.268			-2.752
251504.000			-30.268			-2.752
251604.000			-30.267			-2.752
251704.000			-30.267			-2.752
251804.000			-30.267			-2.752
251904.000			-30.267			-2.752
252005.000			-30.267			-2.752
252104.000			-30.266			-2.751
252204.000			-30.265			-2.751
252305.000			-30.266			-2.751
252403.000			-30.265			-2.751
252504.000			-30.265			-2.751
252603.000			-30.265			-2.751
252704.000			-30.265			-2.751
252805.000			-30.264			-2.751
252904.000			-30.264			-2.751
253004.000			-30.264			-2.751
253105.000			-30.263			-2.751
253204.000			-30.262			-2.751
253303.000			-30.263			-2.751
253405.000			-30.262			-2.751
253503.000			-30.262			-2.751
253604.000			-30.261			-2.751
253705.000			-30.261			-2.751
253804.000			-30.260			-2.751
253904.000			-30.261			-2.751
254005.000			-30.261			-2.751
254104.000			-30.260			-2.751
254203.000			-30.260			-2.751
254305.000			-30.261			-2.751
254404.000			-30.259			-2.751
254504.000			-30.258			-2.751
254605.000			-30.258			-2.751
254704.000			-30.258			-2.751
254804.000			-30.258			-2.751
254905.000			-30.258			-2.751
255004.000			-30.257			-2.751
255103.000			-30.258			-2.751
255205.000			-30.258			-2.751
255304.000			-30.257			-2.751
255404.000			-30.257			-2.751
255505.000			-30.257			-2.751
255604.000			-30.256			-2.751
255704.000			-30.255			-2.750
255804.000			-30.255			-2.750
255904.000			-30.255			-2.750
256003.000			-30.254			-2.750
256104.000			-30.254			-2.750
256204.000			-30.253			-2.750
256305.000			-30.254			-2.750
256404.000			-30.254			-2.750
256504.000			-30.253			-2.750
256605.000			-30.253			-2.750
256704.000			-30.253			-2.750
256804.000			-30.253			-2.750
256904.000			-30.252			-2.750
257004.000			-30.251			-2.750
257104.000			-30.251			-2.750
257205.000			-30.251			-2.750
257304.000			-30.250			-2.750
257404.000			-30.251			-2.750
257505.000			-30.251			-2.750
257604.000			-30.250			-2.750
257704.000			-30.249			-2.750
257804.000			-30.250			-2.750
257904.000			-30.250			-2.750
258004.000			-30.249			-2.750
258105.000			-30.249			-2.750
258204.000			-30.248			-2.750
258304.000			-30.248			-2.750
258405.000			-30.248			-2.750
258504.000			-30.248			-2.750
258604.000			-30.248			-2.750
258704.000			-30.247			-2.750
258804.000			-30.246			-2.750
258904.000			-30.246			-2.750
259004.000			-30.245			-2.750
259104.000			-30.245			-2.750
259205.000			-30.246			-2.750
259304.000			-30.246			-2.750
259404.000			-30.246			-2.750
259505.000			-30.246			-2.750
259603.000			-30.245			-2.750
259704.000			-30.245			-2.750
259805.000			-30.245			-2.750
259904.000			-30.244			-2.749
260004.000			-30.243			-2.749
260105.000			-30.243			-2.749
260204.000			-30.244			-2.749
260303.000			-30.244			-2.749
260405.000			-30.242			-2.749
260503.000			-30.242			-2.749
260604.000			-30.242			-2.749
260705.000			-30.241			-2.749
260804.000			-30.241			-2.749
260904.000			-30.240			-2.749
261005.000			-30.240			-2.749
261104.000			-30.240			-2.749
261203.000			-30.240			-2.749
261305.000			-30.239			-2.749
261404.000			-30.240			-2.749
261504.000			-30.241			-2.749
261605.000			-30.239			-2.749
261704.000			-30.238			-2.749
261804.000			-30.239			-2.749
261904.000			-30.239			-2.749
262004.000			-30.238			-2.749
262103.000			-30.238			-2.749
262205.000			-30.238			-2.749
262304.000			-30.238			-2.749
262405.000			-30.237			-2.749
262504.000			-30.236			-2.749
262604.000			-30.235			-2.749
262705.000			-30.235			-2.749
262804.000			-30.234			-2.749
262904.000			-30.234			-2.749
263004.000			-30.235			-2.749
263104.000			-30.234			-2.749
263204.000			-30.234			-2.749
263305.000			-30.233			-2.748
263404.000			-30.233			-2.748
263504.000			-30.233			-2.748
263605.000			-30.234			-2.749
263703.000			-30.233			-2.748
263804.000			-30.233			-2.748
263905.000			-30.232			-2.748
264004.000			-30.233			-2.748
264104.000			-30.232			-2.748
264205.000			-30.230			-2.748
264304.000			-30.231			-2.748
264404.000			-30.231			-2.748
264505.000			-30.230			-2.748
264603.000			-30.229			-2.748
264704.000			-30.230			-2.748
264805.000			-30.229			-2.748
264904.000			-30.230			-2.748
265004.000			-30.230			-2.748
265105.000			-30.230			-2.748
265204.000			-30.229			-2.748
265304.000			-30.228			-2.748
265405.000			-30.228			-2.748
265503.000			-30.228			-2.748
265605.000			-30.228			-2.748
265704.000			-30.227			-2.748
265804.000			-30.228			-2.748
265905.000			-30.227			-2.748
266004.000			-30.227			-2.748
266104.000			-30.227			-2.748
266204.000			-30.226			-2.748
266304.000			-30.225			-2.748
266403.000			-30.225			-2.748
266505.000			-30.224			-2.748
266604.000			-30.224			-2.748
266704.000			-30.226			-2.748
266805.000			-30.225			-2.748
266904.000			-30.223			-2.748
267004.000			-30.224			-2.748
267104.000			-30.223			-2.748
267204.000			-30.223			-2.748
267303.000			-30.223			-2.748
267405.000			-30.222			-2.747
267504.000			-30.222			-2.747
267604.000			-30.222			-2.747
267705.000			-30.222			-2.747
267804.000			-30.222			-2.747
267904.000			-30.221			-2.747
268004.000			-30.221			-2.747
268104.000			-30.221			-2.747
268204.000			-30.221			-2.747
268305.000			-30.220			-2.747
268404.000			-30.220			-2.747
268504.000			-30.220			-2.747
268605.000			-30.219			-2.747
268704.000			-30.219			-2.747
268805.000			-30.219			-2.747
268903.000			-30.218			-2.747
269004.000			-30.218			-2.747
269105.000			-30.219			-2.747
269204.000			-30.218			-2.747
269304.000			-30.217			-2.747
269405.000			-30.217			-2.747
269504.000			-30.217			-2.747
269604.000			-30.218			-2.747
269705.000			-30.217			-2.747
269803.000			-30.215			-2.747
269904.000			-30.215			-2.747
270005.000			-30.216			-2.747
270104.000			-30.215			-2.747
270204.000			-30.216			-2.747
270305.000			-30.214			-2.747
270404.000			-30.214			-2.747
270504.000			-30.213			-2.747
270605.000			-30.213			-2.747
270703.000			-30.212			-2.747
270804.000			-30.212			-2.747
270905.000			-30.213			-2.747
271004.000			-30.213			-2.747
271104.000			-30.213			-2.747
271205.000			-30.212			-2.747
271304.000			-30.210			-2.746
271403.000			-30.211			-2.746
271505.000			-30.211			-2.746
271604.000			-30.212			-2.747
271704.000			-30.211			-2.746
271805.000			-30.211			-2.746
271904.000			-30.211			-2.746
272005.000			-30.210			-2.746
272104.000			-30.210			-2.746
272204.000			-30.209			-2.746
272304.000			-30.209			-2.746
272404.000			-30.208			-2.746
272504.000			-30.208			-2.746
272605.000			-30.208			-2.746
272704.000			-30.208			-2.746
272804.000			-30.207			-2.746
272905.000			-30.207			-2.746
273003.000			-30.207			-2.746
273104.000			-30.206			-2.746
273205.000			-30.206			-2.746
273304.000			-30.206			-2.746
273404.000			-30.205			-2.746
273505.000			-30.205			-2.746
273604.000			-30.205			-2.746
273704.000			-30.203			-2.746
273805.000			-30.204			-2.746
273903.000			-30.205			-2.746
274004.000			-30.204			-2.746
274105.000			-30.204			-2.746
274204.000			-30.204			-2.746
274304.000			-30.203			-2.746
274405.000			-30.203			-2.746
274504.000			-30.202			-2.746
274603.000			-30.202			-2.746
274705.000			-30.201			-2.746
274804.000			-30.201			-2.746
274904.000			-30.201			-2.746
275005.000			-30.201			-2.746
275104.000			-30.201			-2.746
275205.000			-30.201			-2.746
275304.000			-30.201			-2.746
275404.000			-30.200			-2.745
275504.000			-30.199			-2.745
275604.000			-30.200			-2.745
275704.000			-30.198			-2.745
275805.000			-30.199			-2.745
275904.000			-30.199			-2.745
276004.000			-30.199			-2.745
276105.000			-30.198			-2.745
276204.000			-30.198			-2.745
276304.000			-30.198			-2.745
276404.000			-30.198			-2.745
276504.000			-30.197			-2.745
276604.000			-30.197			-2.745
276705.000			-30.197			-2.745
276804.000			-30.197			-2.745
276904.000			-30.197			-2.745
277005.000			-30.196			-2.745
277104.000			-30.196			-2.745
277204.000			-30.196			-2.745
277304.000			-30.196			-2.745
277404.000			-30.196			-2.745
277504.000			-30.195			-2.745
277605.000			-30.194			-2.745
277704.000			-30.193			-2.745
277804.000			-30.195			-2.745
277905.000			-30.194			-2.745
278004.000			-30.195			-2.745
278104.000			-30.194			-2.745
278203.000			-30.194			-2.745
278304.000			-30.194			-2.745
278403.000			-30.193			-2.745
278504.000			-30.193			-2.745
278604.000			-30.191			-2.745
278705.000			-30.191			-2.745
278804.000			-30.191			-2.745
278904.000			-30.191			-2.745
279005.000			-30.192			-2.745
279103.000			-30.191			-2.745
279204.000			-30.190			-2.745
279305.000			-30.190			-2.745
279404.000			-30.189			-2.744
279504.000			-30.189			-2.744
279605.000			-30.189			-2.744
279704.000			-30.188			-2.744
279804.000			-30.189			-2.744
279905.000			-30.189			-2.744
280003.000			-30.188			-2.744
280104.000			-30.187			-2.744
280205.000			-30.187			-2.744
280304.000			-30.188			-2.744
280404.000			-30.187			-2.744
280505.000			-30.187			-2.744
280604.000			-30.188			-2.744
280704.000			-30.186			-2.744
280805.000			-30.185			-2.744
280903.000			-30.186			-2.744
281004.000			-30.187			-2.744
281105.000			-30.186			-2.744
281204.000			-30.186			-2.744
281304.000			-30.186			-2.744
281404.000			-30.185			-2.744
281504.000			-30.183			-2.744
281605.000			-30.183			-2.744
281704.000			-30.184			-2.744
281803.000			-30.183			-2.744
281905.000			-30.183			-2.744
282004.000			-30.182			-2.744
282104.000			-30.184			-2.744
282205.000			-30.183			-2.744
282304.000			-30.182			-2.744
282404.000			-30.182			-2.744
282505.000			-30.181			-2.744
282604.000			-30.181			-2.744
282703.000			-30.181			-2.744
282805.000			-30.180			-2.744
282904.000			-30.181			-2.744
283004.000			-30.180			-2.744
283105.000			-30.180			-2.744
283204.000			-30.181			-2.744
283304.000			-30.180			-2.744
283404.000			-30.178			-2.743
283504.000			-30.178			-2.743
283603.000			-30.179			-2.744
283705.000			-30.179			-2.744
283804.000			-30.180			-2.744
283904.000			-30.179			-2.744
284005.000			-30.177			-2.743
284104.000			-30.177			-2.743
284204.000			-30.178			-2.743
284305.000			-30.176			-2.743
284404.000			-30.176			-2.743
284503.000			-30.177			-2.743
284605.000			-30.176			-2.743
284704.000			-30.175			-2.743
284805.000			-30.174			-2.743
284904.000			-30.175			-2.743
285004.000			-30.176			-2.743
285105.000			-30.175			-2.743
285204.000			-30.174			-2.743
285304.000			-30.174			-2.743
285404.000			-30.174			-2.743
285504.000			-30.174			-2.743
285604.000			-30.175			-2.743
285705.000			-30.176			-2.743
285804.000			-30.174			-2.743
285904.000			-30.174			-2.743
286005.000			-30.173			-2.743
286104.000			-30.173			-2.743
286204.000			-30.171			-2.743
286304.000			-30.171			-2.743
286404.000			-30.172			-2.743
286504.000			-30.171			-2.743
286605.000			-30.170			-2.743
286704.000			-30.170			-2.743
286804.000			-30.170			-2.743
286905.000			-30.171			-2.743
287003.000			-30.170			-2.743
287104.000			-30.170			-2.743
287204.000			-30.169			-2.743
287304.000			-30.169			-2.743
287404.000			-30.169			-2.743
287505.000			-30.169			-2.743
287604.000			-30.169			-2.743
287704.000			-30.168			-2.743
287805.000			-30.168			-2.743
287904.000			-30.169			-2.743
288005.000			-30.167			-2.742
288103.000			-30.168			-2.743
288204.000			-30.167			-2.742
288305.000			-30.166			-2.742
288404.000			-30.166			-2.742
288504.000			-30.165			-2.742
288605.000			-30.165			-2.742
288704.000			-30.166			-2.742
288804.000			-30.166			-2.742
288905.000			-30.164			-2.742
289003.000			-30.164			-2.742
289104.000			-30.165			-2.742
289205.000			-30.165			-2.742
289304.000			-30.164			-2.742
289404.000			-30.165			-2.742
289505.000			-30.165			-2.742
289604.000			-30.164			-2.742
289704.000			-30.163			-2.742
289805.000			-30.163			-2.742
289903.000			-30.162			-2.742
290004.000			-30.163			-2.742
290105.000			-30.162			-2.742
290204.000			-30.162			-2.742
290304.000			-30.161			-2.742
290405.000			-30.161			-2.742
290504.000			-30.160			-2.742
290603.000			-30.160			-2.742
290705.000			-30.161			-2.742
290803.000			-30.160			-2.742
290904.000			-30.160			-2.742
291005.000			-30.160			-2.742
291104.000			-30.158			-2.742
291205.000			-30.159			-2.742
291304.000			-30.159			-2.742
291404.000			-30.160			-2.742
291504.000			-30.159			-2.742
291604.000			-30.159			-2.742
291703.000			-30.158			-2.742
291805.000			-30.158			-2.742
291904.000			-30.158			-2.742
292004.000			-30.158			-2.742
292105.000			-30.158			-2.742
292204.000			-30.157			-2.742
292304.000			-30.156			-2.741
292404.000			-30.157			-2.742
292504.000			-30.156			-2.741
292603.000			-30.156			-2.741
292705.000			-30.157			-2.742
292804.000			-30.155			-2.741
292904.000			-30.154			-2.741
293005.000			-30.155			-2.741
293104.000			-30.155			-2.741
293204.000			-30.155			-2.741
293304.000			-30.155			-2.741
293404.000			-30.155			-2.741
293504.000			-30.154			-2.741
293605.000			-30.153			-2.741
293704.000			-30.153			-2.741
293804.000			-30.154			-2.741
293905.000			-30.154			-2.741
294004.000			-30.153			-2.741
294104.000			-30.152			-2.741
294203.000			-30.151			-2.741
294304.000			-30.151			-2.741
294405.000			-30.151			-2.741
294504.000			-30.152			-2.741
294604.000			-30.151			-2.741
294705.000			-30.151			-2.741
294804.000			-30.151			-2.741
294904.000			-30.150			-2.741
295005.000			-30.150			-2.741
295103.000			-30.150			-2.741
295204.000			-30.149			-2.741
295305.000			-30.148			-2.741
295404.000			-30.148			-2.741
295504.000			-30.149			-2.741
295605.000			-30.149			-2.741
295704.000			-30.148			-2.741
295804.000			-30.148			-2.741
295905.000			-30.147			-2.741
296003.000			-30.147			-2.741
296104.000			-30.146			-2.741
296205.000			-30.147			-2.741
296304.000			-30.146			-2.741
296404.000			-30.145			-2.740
296505.000			-30.146			-2.741
296604.000			-30.145			-2.740
296704.000			-30.146			-2.741
296805.000			-30.146			-2.741
296903.000			-30.144			-2.740
297004.000			-30.144			-2.740
297105.000			-30.145			-2.740
297204.000			-30.144			-2.740
297304.000			-30.143			-2.740
297404.000			-30.143			-2.740
297504.000			-30.144			-2.740
297605.000			-30.144			-2.740
297704.000			-30.143			-2.740
297803.000			-30.142			-2.740
297905.000			-30.141			-2.740
298004.000			-30.141			-2.740
298104.000			-30.141			-2.740
298205.000			-30.141			-2.740
298304.000			-30.142			-2.740
298404.000			-30.142			-2.740
298505.000			-30.142			-2.740
298604.000			-30.140			-2.740
298703.000			-30.140			-2.740
298805.000			-30.140			-2.740
298904.000			-30.140			-2.740
299004.000			-30.139			-2.740
299105.000			-30.139			-2.740
299204.000			-30.140			-2.740
299304.000			-30.139			-2.740
299405.000			-30.140			-2.740
299504.000			-30.139			-2.740
299603.000			-30.138			-2.740
299705.000			-30.139			-2.740
299804.000			-30.138			-2.740
299904.000			-30.137			-2.740
