# Acquired on 26/01/2024 10:43:13 
# SPIDER: Creep_-3mm_HM077x145x38AB-1
# CREEP MEASUREMENT

# time [ms]		force [N]		stiffness [N/mm]
0.000			9.854			-3.285
103.000			10.537			-3.512
204.000			10.747			-3.582
304.000			10.745			-3.582
405.000			10.718			-3.573
504.000			10.679			-3.560
603.000			10.662			-3.554
705.000			10.648			-3.549
804.000			10.635			-3.545
904.000			10.623			-3.541
1005.000			10.612			-3.537
1103.000			10.604			-3.535
1204.000			10.584			-3.528
1305.000			10.577			-3.526
1404.000			10.569			-3.523
1504.000			10.561			-3.520
1604.000			10.553			-3.518
1704.000			10.546			-3.515
1803.000			10.540			-3.513
1905.000			10.526			-3.509
2004.000			10.520			-3.507
2104.000			10.516			-3.505
2205.000			10.510			-3.503
2303.000			10.505			-3.502
2404.000			10.500			-3.500
2505.000			10.495			-3.498
2604.000			10.490			-3.497
2704.000			10.481			-3.494
2805.000			10.476			-3.492
2904.000			10.472			-3.491
3003.000			10.467			-3.489
3105.000			10.464			-3.488
3204.000			10.460			-3.487
3305.000			10.455			-3.485
3404.000			10.448			-3.483
3503.000			10.444			-3.481
3605.000			10.441			-3.480
3704.000			10.438			-3.479
3804.000			10.434			-3.478
3905.000			10.431			-3.477
4004.000			10.427			-3.476
4104.000			10.420			-3.473
4204.000			10.419			-3.473
4304.000			10.415			-3.472
4404.000			10.411			-3.470
4505.000			10.409			-3.470
4604.000			10.406			-3.469
4703.000			10.402			-3.467
4805.000			10.398			-3.466
4904.000			10.395			-3.465
5004.000			10.391			-3.464
5105.000			10.389			-3.463
5204.000			10.387			-3.462
5304.000			10.384			-3.461
5404.000			10.381			-3.460
5504.000			10.378			-3.459
5604.000			10.374			-3.458
5705.000			10.373			-3.458
5804.000			10.370			-3.457
5903.000			10.367			-3.456
6005.000			10.366			-3.455
6104.000			10.363			-3.454
6204.000			10.360			-3.453
6305.000			10.357			-3.452
6404.000			10.355			-3.452
6505.000			10.352			-3.451
6603.000			10.350			-3.450
6704.000			10.348			-3.449
6805.000			10.345			-3.448
6904.000			10.343			-3.448
7004.000			10.340			-3.447
7104.000			10.338			-3.446
7204.000			10.336			-3.445
7304.000			10.335			-3.445
7405.000			10.332			-3.444
7504.000			10.331			-3.444
7604.000			10.329			-3.443
7705.000			10.327			-3.442
7803.000			10.323			-3.441
7904.000			10.321			-3.440
8005.000			10.320			-3.440
8104.000			10.319			-3.440
8204.000			10.317			-3.439
8304.000			10.314			-3.438
8404.000			10.312			-3.437
8504.000			10.310			-3.437
8605.000			10.308			-3.436
8704.000			10.307			-3.436
8804.000			10.304			-3.435
8905.000			10.303			-3.434
9003.000			10.301			-3.434
9104.000			10.300			-3.433
9205.000			10.298			-3.433
9304.000			10.295			-3.432
9404.000			10.294			-3.431
9504.000			10.293			-3.431
9604.000			10.292			-3.431
9705.000			10.290			-3.430
9804.000			10.288			-3.429
9904.000			10.287			-3.429
10005.000			10.284			-3.428
10104.000			10.282			-3.427
10203.000			10.281			-3.427
10305.000			10.280			-3.427
10404.000			10.280			-3.427
10504.000			10.278			-3.426
10605.000			10.276			-3.425
10704.000			10.273			-3.424
10804.000			10.271			-3.424
10904.000			10.271			-3.424
11004.000			10.269			-3.423
11104.000			10.267			-3.422
11205.000			10.266			-3.422
11304.000			10.265			-3.422
11403.000			10.262			-3.421
11505.000			10.261			-3.420
11604.000			10.260			-3.420
11704.000			10.258			-3.419
11805.000			10.257			-3.419
11904.000			10.255			-3.418
12004.000			10.254			-3.418
12104.000			10.252			-3.417
12204.000			10.251			-3.417
12304.000			10.250			-3.417
12405.000			10.248			-3.416
12504.000			10.247			-3.416
12604.000			10.246			-3.415
12705.000			10.245			-3.415
12803.000			10.244			-3.415
12905.000			10.241			-3.414
13004.000			10.241			-3.414
13104.000			10.239			-3.413
13205.000			10.237			-3.412
13303.000			10.238			-3.413
13404.000			10.237			-3.412
13505.000			10.236			-3.412
13604.000			10.233			-3.411
13704.000			10.232			-3.411
13805.000			10.231			-3.410
13904.000			10.230			-3.410
14003.000			10.229			-3.410
14105.000			10.228			-3.409
14204.000			10.227			-3.409
14304.000			10.223			-3.408
14405.000			10.223			-3.408
14503.000			10.222			-3.407
14604.000			10.221			-3.407
14705.000			10.220			-3.407
14804.000			10.219			-3.406
14904.000			10.219			-3.406
15005.000			10.218			-3.406
15104.000			10.215			-3.405
15203.000			10.214			-3.405
15305.000			10.214			-3.405
15404.000			10.213			-3.404
15504.000			10.213			-3.404
15605.000			10.211			-3.404
15704.000			10.209			-3.403
15804.000			10.207			-3.402
15903.000			10.206			-3.402
16004.000			10.205			-3.402
16105.000			10.204			-3.401
16204.000			10.204			-3.401
16304.000			10.203			-3.401
16404.000			10.201			-3.400
16504.000			10.199			-3.400
16604.000			10.199			-3.400
16705.000			10.198			-3.399
16804.000			10.197			-3.399
16904.000			10.196			-3.399
17005.000			10.195			-3.398
17103.000			10.194			-3.398
17204.000			10.192			-3.397
17305.000			10.193			-3.398
17404.000			10.192			-3.397
17504.000			10.192			-3.397
17605.000			10.190			-3.397
17704.000			10.189			-3.396
17803.000			10.188			-3.396
17905.000			10.186			-3.395
18004.000			10.185			-3.395
18104.000			10.183			-3.394
18205.000			10.183			-3.394
18303.000			10.182			-3.394
18404.000			10.182			-3.394
18505.000			10.181			-3.394
18604.000			10.180			-3.393
18704.000			10.178			-3.393
18805.000			10.176			-3.392
18904.000			10.175			-3.392
19003.000			10.175			-3.392
19105.000			10.175			-3.392
19204.000			10.174			-3.391
19305.000			10.173			-3.391
19404.000			10.172			-3.391
19504.000			10.171			-3.390
19605.000			10.170			-3.390
19703.000			10.170			-3.390
19804.000			10.168			-3.389
19905.000			10.168			-3.389
20004.000			10.167			-3.389
20104.000			10.166			-3.389
20205.000			10.166			-3.389
20304.000			10.165			-3.388
20403.000			10.164			-3.388
20505.000			10.162			-3.387
20604.000			10.161			-3.387
20704.000			10.161			-3.387
20805.000			10.161			-3.387
20903.000			10.159			-3.386
21004.000			10.159			-3.386
21105.000			10.158			-3.386
21204.000			10.157			-3.386
21304.000			10.155			-3.385
21405.000			10.154			-3.385
21504.000			10.155			-3.385
21603.000			10.154			-3.385
21705.000			10.154			-3.385
21804.000			10.152			-3.384
21904.000			10.152			-3.384
22005.000			10.151			-3.384
22104.000			10.151			-3.384
22204.000			10.150			-3.383
22303.000			10.149			-3.383
22404.000			10.147			-3.382
22505.000			10.147			-3.382
22604.000			10.148			-3.383
22704.000			10.146			-3.382
22804.000			10.145			-3.382
22904.000			10.144			-3.381
23004.000			10.144			-3.381
23105.000			10.142			-3.381
23204.000			10.142			-3.381
23304.000			10.141			-3.380
23405.000			10.140			-3.380
23503.000			10.139			-3.380
23604.000			10.138			-3.379
23705.000			10.139			-3.380
23804.000			10.137			-3.379
23904.000			10.137			-3.379
24005.000			10.136			-3.379
24104.000			10.135			-3.378
24203.000			10.134			-3.378
24305.000			10.133			-3.378
24404.000			10.133			-3.378
24504.000			10.132			-3.377
24605.000			10.131			-3.377
24703.000			10.130			-3.377
24804.000			10.130			-3.377
24905.000			10.129			-3.376
25004.000			10.128			-3.376
25104.000			10.128			-3.376
25205.000			10.127			-3.376
25304.000			10.126			-3.375
25403.000			10.125			-3.375
25505.000			10.125			-3.375
25604.000			10.124			-3.375
25705.000			10.123			-3.374
25804.000			10.122			-3.374
25904.000			10.121			-3.374
26005.000			10.121			-3.374
26103.000			10.120			-3.373
26204.000			10.119			-3.373
26305.000			10.119			-3.373
26404.000			10.119			-3.373
26504.000			10.117			-3.372
26604.000			10.118			-3.373
26704.000			10.117			-3.372
26804.000			10.114			-3.371
26905.000			10.115			-3.372
27004.000			10.115			-3.372
27104.000			10.114			-3.371
27205.000			10.113			-3.371
27303.000			10.112			-3.371
27404.000			10.113			-3.371
27505.000			10.111			-3.370
27604.000			10.110			-3.370
27704.000			10.108			-3.369
27804.000			10.108			-3.369
27904.000			10.109			-3.370
28003.000			10.108			-3.369
28105.000			10.108			-3.369
28204.000			10.105			-3.368
28304.000			10.105			-3.368
28405.000			10.105			-3.368
28503.000			10.104			-3.368
28604.000			10.103			-3.368
28705.000			10.103			-3.368
28804.000			10.103			-3.368
28905.000			10.101			-3.367
29004.000			10.102			-3.367
29104.000			10.101			-3.367
29204.000			10.100			-3.367
29304.000			10.099			-3.366
29404.000			10.098			-3.366
29505.000			10.098			-3.366
29604.000			10.098			-3.366
29704.000			10.096			-3.365
29805.000			10.095			-3.365
29903.000			10.095			-3.365
30004.000			10.094			-3.365
30105.000			10.094			-3.365
30204.000			10.094			-3.365
30304.000			10.093			-3.364
30404.000			10.093			-3.364
30504.000			10.092			-3.364
30604.000			10.091			-3.364
30705.000			10.090			-3.363
30804.000			10.089			-3.363
30904.000			10.090			-3.363
31005.000			10.090			-3.363
31103.000			10.088			-3.363
31204.000			10.089			-3.363
31305.000			10.089			-3.363
31404.000			10.087			-3.362
31504.000			10.087			-3.362
31605.000			10.085			-3.362
31704.000			10.085			-3.362
31803.000			10.084			-3.361
31905.000			10.083			-3.361
32004.000			10.083			-3.361
32105.000			10.081			-3.360
32204.000			10.080			-3.360
32303.000			10.081			-3.360
32405.000			10.081			-3.360
32504.000			10.080			-3.360
32604.000			10.079			-3.360
32705.000			10.079			-3.360
32804.000			10.078			-3.359
32904.000			10.078			-3.359
33004.000			10.077			-3.359
33104.000			10.077			-3.359
33204.000			10.076			-3.359
33305.000			10.075			-3.358
33404.000			10.075			-3.358
33504.000			10.075			-3.358
33605.000			10.074			-3.358
33703.000			10.074			-3.358
33804.000			10.073			-3.358
33905.000			10.072			-3.357
34004.000			10.072			-3.357
34104.000			10.072			-3.357
34204.000			10.072			-3.357
34304.000			10.071			-3.357
34404.000			10.070			-3.357
34505.000			10.069			-3.356
34604.000			10.070			-3.357
34704.000			10.070			-3.357
34805.000			10.067			-3.356
34903.000			10.067			-3.356
35004.000			10.067			-3.356
35105.000			10.066			-3.355
35204.000			10.065			-3.355
35305.000			10.065			-3.355
35404.000			10.064			-3.355
35504.000			10.064			-3.355
35604.000			10.064			-3.355
35704.000			10.065			-3.355
35804.000			10.064			-3.355
35905.000			10.063			-3.354
36004.000			10.062			-3.354
36103.000			10.061			-3.354
36205.000			10.059			-3.353
36304.000			10.059			-3.353
36404.000			10.060			-3.353
36505.000			10.060			-3.353
36604.000			10.059			-3.353
36704.000			10.059			-3.353
36804.000			10.058			-3.353
36904.000			10.057			-3.352
37004.000			10.056			-3.352
37105.000			10.057			-3.352
37204.000			10.057			-3.352
37304.000			10.056			-3.352
37405.000			10.055			-3.352
37503.000			10.054			-3.351
37604.000			10.053			-3.351
37705.000			10.054			-3.351
37804.000			10.053			-3.351
37904.000			10.052			-3.351
38004.000			10.052			-3.351
38104.000			10.051			-3.350
38204.000			10.050			-3.350
38304.000			10.050			-3.350
38404.000			10.049			-3.350
38505.000			10.050			-3.350
38604.000			10.049			-3.350
38703.000			10.048			-3.349
38805.000			10.048			-3.349
38904.000			10.048			-3.349
39004.000			10.048			-3.349
39105.000			10.047			-3.349
39204.000			10.046			-3.349
39304.000			10.047			-3.349
39404.000			10.045			-3.348
39504.000			10.045			-3.348
39604.000			10.044			-3.348
39705.000			10.043			-3.348
39804.000			10.043			-3.348
39903.000			10.043			-3.348
40005.000			10.043			-3.348
40104.000			10.042			-3.347
40204.000			10.042			-3.347
40305.000			10.041			-3.347
40404.000			10.041			-3.347
40504.000			10.041			-3.347
40604.000			10.039			-3.346
40704.000			10.039			-3.346
40804.000			10.038			-3.346
40905.000			10.038			-3.346
41004.000			10.039			-3.346
41103.000			10.038			-3.346
41205.000			10.037			-3.346
41304.000			10.037			-3.346
41404.000			10.037			-3.346
41505.000			10.035			-3.345
41604.000			10.036			-3.345
41705.000			10.036			-3.345
41803.000			10.035			-3.345
41904.000			10.034			-3.345
42005.000			10.035			-3.345
42104.000			10.033			-3.344
42204.000			10.033			-3.344
42304.000			10.032			-3.344
42404.000			10.032			-3.344
42504.000			10.031			-3.344
42605.000			10.031			-3.344
42704.000			10.030			-3.343
42804.000			10.030			-3.343
42905.000			10.029			-3.343
43003.000			10.028			-3.343
43104.000			10.028			-3.343
43205.000			10.029			-3.343
43304.000			10.028			-3.343
43404.000			10.027			-3.342
43504.000			10.027			-3.342
43604.000			10.027			-3.342
43704.000			10.026			-3.342
43805.000			10.026			-3.342
43904.000			10.025			-3.342
44004.000			10.024			-3.341
44105.000			10.024			-3.341
44203.000			10.024			-3.341
44304.000			10.024			-3.341
44405.000			10.023			-3.341
44504.000			10.021			-3.340
44604.000			10.022			-3.341
44703.000			10.021			-3.340
44804.000			10.020			-3.340
44905.000			10.020			-3.340
45004.000			10.020			-3.340
45104.000			10.019			-3.340
45205.000			10.019			-3.340
45304.000			10.019			-3.340
45403.000			10.019			-3.340
45505.000			10.017			-3.339
45604.000			10.017			-3.339
45704.000			10.016			-3.339
45805.000			10.016			-3.339
45904.000			10.015			-3.338
46004.000			10.015			-3.338
46104.000			10.016			-3.339
46204.000			10.015			-3.338
46304.000			10.015			-3.338
46405.000			10.016			-3.339
46504.000			10.016			-3.339
46603.000			10.016			-3.339
46705.000			10.015			-3.338
46804.000			10.014			-3.338
46904.000			10.015			-3.338
47005.000			10.015			-3.338
47104.000			10.014			-3.338
47204.000			10.014			-3.338
47304.000			10.013			-3.338
47404.000			10.013			-3.338
47504.000			10.013			-3.338
47605.000			10.013			-3.338
47704.000			10.011			-3.337
47803.000			10.011			-3.337
47905.000			10.011			-3.337
48004.000			10.010			-3.337
48105.000			10.009			-3.336
48204.000			10.010			-3.337
48304.000			10.008			-3.336
48405.000			10.008			-3.336
48503.000			10.008			-3.336
48604.000			10.007			-3.336
48705.000			10.008			-3.336
48804.000			10.007			-3.336
48904.000			10.006			-3.335
49005.000			10.006			-3.335
49104.000			10.006			-3.335
49203.000			10.005			-3.335
49305.000			10.004			-3.335
49404.000			10.004			-3.335
49504.000			10.004			-3.335
49605.000			10.003			-3.334
49703.000			10.003			-3.334
49804.000			10.002			-3.334
49905.000			10.002			-3.334
50004.000			10.002			-3.334
50104.000			10.001			-3.334
50205.000			10.001			-3.334
50304.000			10.001			-3.334
50403.000			10.000			-3.333
50505.000			10.000			-3.333
50604.000			9.999			-3.333
50704.000			9.998			-3.333
50805.000			9.998			-3.333
50904.000			9.997			-3.332
51004.000			9.998			-3.333
51103.000			9.998			-3.333
51204.000			9.998			-3.333
51305.000			9.997			-3.332
51404.000			9.997			-3.332
51504.000			9.995			-3.332
51605.000			9.996			-3.332
51704.000			9.995			-3.332
51803.000			9.993			-3.331
51905.000			9.994			-3.331
52004.000			9.994			-3.331
52104.000			9.995			-3.332
52205.000			9.995			-3.332
52304.000			9.992			-3.331
52404.000			9.992			-3.331
52504.000			9.992			-3.331
52604.000			9.993			-3.331
52704.000			9.992			-3.331
52805.000			9.992			-3.331
52904.000			9.992			-3.331
53004.000			9.990			-3.330
53105.000			9.989			-3.330
53203.000			9.989			-3.330
53304.000			9.989			-3.330
53405.000			9.989			-3.330
53504.000			9.988			-3.329
53604.000			9.987			-3.329
53705.000			9.988			-3.329
53804.000			9.988			-3.329
53903.000			9.987			-3.329
54005.000			9.986			-3.329
54104.000			9.986			-3.329
54204.000			9.986			-3.329
54305.000			9.985			-3.328
54404.000			9.986			-3.329
54505.000			9.985			-3.328
54603.000			9.983			-3.328
54704.000			9.983			-3.328
54805.000			9.983			-3.328
54904.000			9.982			-3.327
55004.000			9.983			-3.328
55105.000			9.982			-3.327
55204.000			9.982			-3.327
55303.000			9.982			-3.327
55405.000			9.981			-3.327
55504.000			9.980			-3.327
55604.000			9.981			-3.327
55705.000			9.981			-3.327
55804.000			9.980			-3.327
55904.000			9.979			-3.326
56004.000			9.979			-3.326
56104.000			9.978			-3.326
56203.000			9.978			-3.326
56305.000			9.978			-3.326
56404.000			9.978			-3.326
56504.000			9.978			-3.326
56605.000			9.977			-3.326
56704.000			9.977			-3.326
56804.000			9.976			-3.325
56904.000			9.976			-3.325
57004.000			9.975			-3.325
57104.000			9.975			-3.325
57205.000			9.975			-3.325
57304.000			9.975			-3.325
57404.000			9.974			-3.325
57505.000			9.975			-3.325
57603.000			9.975			-3.325
57705.000			9.974			-3.325
57804.000			9.973			-3.324
57904.000			9.972			-3.324
58005.000			9.972			-3.324
58104.000			9.972			-3.324
58204.000			9.971			-3.324
58304.000			9.970			-3.323
58404.000			9.970			-3.323
58504.000			9.971			-3.324
58605.000			9.971			-3.324
58704.000			9.971			-3.324
58804.000			9.968			-3.323
58905.000			9.968			-3.323
59003.000			9.968			-3.323
59104.000			9.968			-3.323
59205.000			9.968			-3.323
59304.000			9.968			-3.323
59404.000			9.967			-3.322
59505.000			9.967			-3.322
59604.000			9.966			-3.322
59703.000			9.966			-3.322
59805.000			9.967			-3.322
59904.000			9.967			-3.322
60004.000			9.967			-3.322
60105.000			9.966			-3.322
60204.000			9.965			-3.322
60304.000			9.965			-3.322
60404.000			9.964			-3.321
60504.000			9.963			-3.321
60604.000			9.963			-3.321
60704.000			9.963			-3.321
60804.000			9.964			-3.321
60905.000			9.963			-3.321
61004.000			9.963			-3.321
61103.000			9.962			-3.321
61205.000			9.963			-3.321
61304.000			9.962			-3.321
61404.000			9.960			-3.320
61505.000			9.960			-3.320
61604.000			9.960			-3.320
61704.000			9.960			-3.320
61804.000			9.960			-3.320
61904.000			9.960			-3.320
62004.000			9.960			-3.320
62105.000			9.959			-3.320
62204.000			9.959			-3.320
62304.000			9.959			-3.320
62405.000			9.959			-3.320
62503.000			9.959			-3.320
62604.000			9.959			-3.320
62705.000			9.959			-3.320
62804.000			9.958			-3.319
62904.000			9.958			-3.319
63005.000			9.958			-3.319
63104.000			9.957			-3.319
63203.000			9.958			-3.319
63305.000			9.958			-3.319
63404.000			9.957			-3.319
63504.000			9.957			-3.319
63605.000			9.956			-3.319
63704.000			9.955			-3.318
63804.000			9.956			-3.319
63904.000			9.956			-3.319
64004.000			9.955			-3.318
64103.000			9.954			-3.318
64204.000			9.954			-3.318
64304.000			9.954			-3.318
64405.000			9.954			-3.318
64504.000			9.953			-3.318
64604.000			9.952			-3.317
64705.000			9.952			-3.317
64803.000			9.952			-3.317
64904.000			9.952			-3.317
65005.000			9.952			-3.317
65104.000			9.951			-3.317
65204.000			9.950			-3.317
65304.000			9.950			-3.317
65404.000			9.949			-3.316
65503.000			9.949			-3.316
65605.000			9.949			-3.316
65704.000			9.949			-3.316
65804.000			9.949			-3.316
65905.000			9.949			-3.316
66004.000			9.948			-3.316
66104.000			9.947			-3.316
66204.000			9.948			-3.316
66304.000			9.947			-3.316
66404.000			9.947			-3.316
66505.000			9.947			-3.316
66604.000			9.948			-3.316
66704.000			9.946			-3.315
66805.000			9.944			-3.315
66903.000			9.944			-3.315
67004.000			9.945			-3.315
67105.000			9.944			-3.315
67204.000			9.943			-3.314
67305.000			9.943			-3.314
67404.000			9.943			-3.314
67504.000			9.943			-3.314
67604.000			9.942			-3.314
67704.000			9.942			-3.314
67804.000			9.942			-3.314
67905.000			9.943			-3.314
68004.000			9.942			-3.314
68104.000			9.941			-3.314
68205.000			9.941			-3.314
68303.000			9.941			-3.314
68404.000			9.940			-3.313
68505.000			9.941			-3.314
68604.000			9.941			-3.314
68704.000			9.939			-3.313
68805.000			9.939			-3.313
68904.000			9.939			-3.313
69003.000			9.939			-3.313
69105.000			9.939			-3.313
69204.000			9.938			-3.313
69304.000			9.938			-3.313
69405.000			9.937			-3.312
69504.000			9.937			-3.312
69604.000			9.937			-3.312
69704.000			9.938			-3.313
69804.000			9.937			-3.312
69903.000			9.935			-3.312
70005.000			9.936			-3.312
70104.000			9.937			-3.312
70204.000			9.937			-3.312
70305.000			9.936			-3.312
70404.000			9.934			-3.311
70505.000			9.934			-3.311
70603.000			9.934			-3.311
70704.000			9.934			-3.311
70805.000			9.934			-3.311
70904.000			9.933			-3.311
71004.000			9.933			-3.311
71104.000			9.932			-3.311
71204.000			9.933			-3.311
71303.000			9.933			-3.311
71405.000			9.932			-3.311
71504.000			9.931			-3.310
71604.000			9.931			-3.310
71705.000			9.931			-3.310
71803.000			9.930			-3.310
71904.000			9.930			-3.310
72004.000			9.929			-3.310
72104.000			9.929			-3.310
72204.000			9.930			-3.310
72305.000			9.929			-3.310
72404.000			9.929			-3.310
72504.000			9.930			-3.310
72605.000			9.929			-3.310
72703.000			9.929			-3.310
72804.000			9.928			-3.309
72905.000			9.928			-3.309
73004.000			9.927			-3.309
73104.000			9.928			-3.309
73205.000			9.927			-3.309
73304.000			9.926			-3.309
73403.000			9.926			-3.309
73505.000			9.926			-3.309
73604.000			9.926			-3.309
73705.000			9.927			-3.309
73804.000			9.926			-3.309
73904.000			9.925			-3.308
74005.000			9.926			-3.309
74103.000			9.925			-3.308
74204.000			9.925			-3.308
74305.000			9.925			-3.308
74404.000			9.924			-3.308
74504.000			9.923			-3.308
74605.000			9.923			-3.308
74704.000			9.924			-3.308
74803.000			9.924			-3.308
74905.000			9.924			-3.308
75004.000			9.923			-3.308
75104.000			9.922			-3.307
75205.000			9.922			-3.307
75304.000			9.922			-3.307
75404.000			9.922			-3.307
75504.000			9.921			-3.307
75604.000			9.922			-3.307
75704.000			9.921			-3.307
75805.000			9.920			-3.307
75904.000			9.920			-3.307
76004.000			9.921			-3.307
76105.000			9.920			-3.307
76203.000			9.920			-3.307
76304.000			9.920			-3.307
76405.000			9.919			-3.306
76504.000			9.918			-3.306
76604.000			9.918			-3.306
76704.000			9.918			-3.306
76804.000			9.918			-3.306
76903.000			9.917			-3.306
77004.000			9.918			-3.306
77104.000			9.918			-3.306
77205.000			9.918			-3.306
77304.000			9.917			-3.306
77404.000			9.917			-3.306
77505.000			9.916			-3.305
77603.000			9.916			-3.305
77704.000			9.916			-3.305
77805.000			9.916			-3.305
77904.000			9.917			-3.306
78004.000			9.916			-3.305
78105.000			9.913			-3.304
78204.000			9.913			-3.304
78303.000			9.914			-3.305
78405.000			9.914			-3.305
78504.000			9.914			-3.305
78604.000			9.913			-3.304
78705.000			9.912			-3.304
78804.000			9.912			-3.304
78904.000			9.912			-3.304
79004.000			9.912			-3.304
79104.000			9.913			-3.304
79204.000			9.913			-3.304
79305.000			9.911			-3.304
79404.000			9.911			-3.304
79504.000			9.910			-3.303
79605.000			9.910			-3.303
79703.000			9.910			-3.303
79804.000			9.911			-3.304
79905.000			9.910			-3.303
80004.000			9.909			-3.303
80105.000			9.909			-3.303
80204.000			9.909			-3.303
80304.000			9.909			-3.303
80404.000			9.908			-3.303
80504.000			9.908			-3.303
80604.000			9.908			-3.303
80705.000			9.908			-3.303
80804.000			9.908			-3.303
80904.000			9.908			-3.303
81005.000			9.908			-3.303
81103.000			9.908			-3.303
81204.000			9.907			-3.302
81305.000			9.906			-3.302
81404.000			9.907			-3.302
81504.000			9.907			-3.302
81605.000			9.906			-3.302
81704.000			9.906			-3.302
81803.000			9.906			-3.302
81905.000			9.906			-3.302
82004.000			9.906			-3.302
82104.000			9.906			-3.302
82205.000			9.905			-3.302
82304.000			9.905			-3.302
82404.000			9.905			-3.302
82504.000			9.904			-3.301
82604.000			9.905			-3.302
82704.000			9.903			-3.301
82805.000			9.903			-3.301
82904.000			9.902			-3.301
83004.000			9.903			-3.301
83105.000			9.902			-3.301
83203.000			9.901			-3.300
83305.000			9.901			-3.300
83404.000			9.901			-3.300
83504.000			9.901			-3.300
83605.000			9.901			-3.300
83704.000			9.901			-3.300
83804.000			9.901			-3.300
83904.000			9.900			-3.300
84004.000			9.900			-3.300
84104.000			9.900			-3.300
84205.000			9.900			-3.300
84304.000			9.900			-3.300
84404.000			9.899			-3.300
84505.000			9.898			-3.299
84603.000			9.898			-3.299
84704.000			9.899			-3.300
84804.000			9.898			-3.299
84904.000			9.897			-3.299
85004.000			9.899			-3.300
85105.000			9.898			-3.299
85204.000			9.897			-3.299
85304.000			9.897			-3.299
85405.000			9.898			-3.299
85503.000			9.897			-3.299
85604.000			9.897			-3.299
85705.000			9.896			-3.299
85804.000			9.896			-3.299
85904.000			9.896			-3.299
86005.000			9.896			-3.299
86104.000			9.896			-3.299
86203.000			9.895			-3.298
86305.000			9.895			-3.298
86404.000			9.894			-3.298
86505.000			9.895			-3.298
86604.000			9.895			-3.298
86704.000			9.894			-3.298
86805.000			9.895			-3.298
86904.000			9.894			-3.298
87004.000			9.894			-3.298
87104.000			9.894			-3.298
87204.000			9.893			-3.298
87304.000			9.893			-3.298
87405.000			9.894			-3.298
87504.000			9.893			-3.298
87604.000			9.893			-3.298
87705.000			9.894			-3.298
87803.000			9.894			-3.298
87904.000			9.892			-3.297
88005.000			9.892			-3.297
88104.000			9.891			-3.297
88204.000			9.891			-3.297
88305.000			9.892			-3.297
88404.000			9.892			-3.297
88503.000			9.891			-3.297
88605.000			9.890			-3.297
88704.000			9.890			-3.297
88804.000			9.890			-3.297
88905.000			9.890			-3.297
89004.000			9.889			-3.296
89104.000			9.889			-3.296
89205.000			9.889			-3.296
89304.000			9.889			-3.296
89403.000			9.889			-3.296
89505.000			9.889			-3.296
89604.000			9.889			-3.296
89705.000			9.888			-3.296
89804.000			9.887			-3.296
89904.000			9.887			-3.296
90005.000			9.887			-3.296
90103.000			9.886			-3.295
90204.000			9.886			-3.295
90305.000			9.887			-3.296
90404.000			9.887			-3.296
90504.000			9.887			-3.296
90605.000			9.885			-3.295
90704.000			9.885			-3.295
90804.000			9.885			-3.295
90905.000			9.885			-3.295
91003.000			9.885			-3.295
91104.000			9.884			-3.295
91205.000			9.884			-3.295
91304.000			9.883			-3.294
91404.000			9.884			-3.295
91505.000			9.884			-3.295
91604.000			9.884			-3.295
91703.000			9.883			-3.294
91805.000			9.882			-3.294
91904.000			9.883			-3.294
92004.000			9.882			-3.294
92105.000			9.882			-3.294
92204.000			9.883			-3.294
92304.000			9.882			-3.294
92404.000			9.881			-3.294
92504.000			9.881			-3.294
92604.000			9.882			-3.294
92704.000			9.881			-3.294
92804.000			9.881			-3.294
92905.000			9.880			-3.293
93004.000			9.879			-3.293
93103.000			9.880			-3.293
93205.000			9.880			-3.293
93304.000			9.880			-3.293
93404.000			9.880			-3.293
93505.000			9.880			-3.293
93604.000			9.880			-3.293
93704.000			9.879			-3.293
93804.000			9.879			-3.293
93904.000			9.879			-3.293
94003.000			9.878			-3.293
94105.000			9.878			-3.293
94204.000			9.878			-3.293
94304.000			9.877			-3.292
94405.000			9.878			-3.293
94504.000			9.878			-3.293
94604.000			9.877			-3.292
94704.000			9.877			-3.292
94804.000			9.877			-3.292
94904.000			9.876			-3.292
95005.000			9.876			-3.292
95104.000			9.876			-3.292
95204.000			9.876			-3.292
95305.000			9.876			-3.292
95403.000			9.875			-3.292
95504.000			9.875			-3.292
95604.000			9.875			-3.292
95704.000			9.876			-3.292
95804.000			9.875			-3.292
95904.000			9.875			-3.292
96004.000			9.874			-3.291
96105.000			9.873			-3.291
96204.000			9.874			-3.291
96303.000			9.874			-3.291
96405.000			9.874			-3.291
96504.000			9.873			-3.291
96604.000			9.872			-3.291
96705.000			9.872			-3.291
96804.000			9.873			-3.291
96904.000			9.873			-3.291
97004.000			9.871			-3.290
97104.000			9.871			-3.290
97204.000			9.871			-3.290
97305.000			9.872			-3.291
97404.000			9.870			-3.290
97504.000			9.870			-3.290
97605.000			9.870			-3.290
97703.000			9.870			-3.290
97804.000			9.870			-3.290
97905.000			9.871			-3.290
98004.000			9.870			-3.290
98104.000			9.871			-3.290
98205.000			9.870			-3.290
98304.000			9.869			-3.290
98403.000			9.868			-3.289
98505.000			9.868			-3.289
98604.000			9.868			-3.289
98704.000			9.868			-3.289
98805.000			9.868			-3.289
98904.000			9.868			-3.289
99004.000			9.867			-3.289
99104.000			9.867			-3.289
99204.000			9.867			-3.289
99303.000			9.867			-3.289
99404.000			9.867			-3.289
99504.000			9.867			-3.289
99605.000			9.867			-3.289
99704.000			9.866			-3.289
99804.000			9.865			-3.288
99905.000			9.865			-3.288
100003.000			9.865			-3.288
100104.000			9.865			-3.288
100205.000			9.865			-3.288
100304.000			9.865			-3.288
100404.000			9.864			-3.288
100505.000			9.864			-3.288
100604.000			9.864			-3.288
100703.000			9.864			-3.288
100805.000			9.864			-3.288
100904.000			9.864			-3.288
101004.000			9.864			-3.288
101105.000			9.863			-3.288
101204.000			9.861			-3.287
101304.000			9.863			-3.288
101404.000			9.863			-3.288
101504.000			9.863			-3.288
101603.000			9.862			-3.287
101705.000			9.862			-3.287
101804.000			9.861			-3.287
101904.000			9.861			-3.287
102005.000			9.862			-3.287
102104.000			9.862			-3.287
102204.000			9.862			-3.287
102303.000			9.861			-3.287
102404.000			9.861			-3.287
102505.000			9.861			-3.287
102604.000			9.860			-3.287
102704.000			9.860			-3.287
102805.000			9.859			-3.286
102904.000			9.860			-3.287
103003.000			9.861			-3.287
103105.000			9.860			-3.287
103204.000			9.859			-3.286
103304.000			9.859			-3.286
103405.000			9.858			-3.286
103504.000			9.858			-3.286
103604.000			9.858			-3.286
103704.000			9.859			-3.286
103804.000			9.858			-3.286
103904.000			9.857			-3.286
104005.000			9.859			-3.286
104104.000			9.859			-3.286
104204.000			9.858			-3.286
104305.000			9.856			-3.285
104403.000			9.856			-3.285
104504.000			9.857			-3.286
104605.000			9.857			-3.286
104704.000			9.855			-3.285
104804.000			9.855			-3.285
104905.000			9.854			-3.285
105004.000			9.855			-3.285
105104.000			9.855			-3.285
105205.000			9.855			-3.285
105303.000			9.856			-3.285
105404.000			9.855			-3.285
105505.000			9.855			-3.285
105604.000			9.855			-3.285
105705.000			9.854			-3.285
105804.000			9.854			-3.285
105904.000			9.853			-3.284
106004.000			9.853			-3.284
106104.000			9.853			-3.284
106204.000			9.853			-3.284
106305.000			9.854			-3.285
106404.000			9.854			-3.285
106504.000			9.853			-3.284
106605.000			9.852			-3.284
106703.000			9.852			-3.284
106804.000			9.852			-3.284
106905.000			9.851			-3.284
107004.000			9.851			-3.284
107104.000			9.852			-3.284
107205.000			9.852			-3.284
107304.000			9.852			-3.284
107404.000			9.852			-3.284
107505.000			9.851			-3.284
107603.000			9.850			-3.283
107704.000			9.850			-3.283
107805.000			9.851			-3.284
107904.000			9.851			-3.284
108004.000			9.850			-3.283
108105.000			9.851			-3.284
108204.000			9.850			-3.283
108303.000			9.848			-3.283
108405.000			9.849			-3.283
108504.000			9.849			-3.283
108604.000			9.849			-3.283
108705.000			9.848			-3.283
108804.000			9.848			-3.283
108905.000			9.849			-3.283
109004.000			9.850			-3.283
109104.000			9.848			-3.283
109204.000			9.848			-3.283
109304.000			9.847			-3.282
109404.000			9.847			-3.282
109505.000			9.847			-3.282
109604.000			9.847			-3.282
109704.000			9.848			-3.283
109805.000			9.846			-3.282
109903.000			9.845			-3.282
110004.000			9.847			-3.282
110105.000			9.847			-3.282
110204.000			9.846			-3.282
110304.000			9.846			-3.282
110405.000			9.846			-3.282
110504.000			9.846			-3.282
110603.000			9.846			-3.282
110705.000			9.845			-3.282
110804.000			9.843			-3.281
110904.000			9.844			-3.281
111005.000			9.844			-3.281
111104.000			9.844			-3.281
111204.000			9.843			-3.281
111304.000			9.844			-3.281
111404.000			9.843			-3.281
111503.000			9.843			-3.281
111605.000			9.843			-3.281
111704.000			9.843			-3.281
111804.000			9.843			-3.281
111905.000			9.843			-3.281
112004.000			9.842			-3.281
112105.000			9.842			-3.281
112203.000			9.842			-3.281
112304.000			9.841			-3.280
112405.000			9.841			-3.280
112504.000			9.842			-3.281
112604.000			9.841			-3.280
112705.000			9.840			-3.280
112804.000			9.841			-3.280
112903.000			9.841			-3.280
113005.000			9.840			-3.280
113104.000			9.840			-3.280
113204.000			9.841			-3.280
113305.000			9.840			-3.280
113404.000			9.839			-3.280
113504.000			9.839			-3.280
113604.000			9.839			-3.280
113704.000			9.839			-3.280
113804.000			9.838			-3.279
113905.000			9.838			-3.279
114004.000			9.840			-3.280
114104.000			9.839			-3.280
114205.000			9.839			-3.280
114303.000			9.839			-3.280
114404.000			9.838			-3.279
114505.000			9.838			-3.279
114604.000			9.837			-3.279
114704.000			9.836			-3.279
114805.000			9.837			-3.279
114904.000			9.837			-3.279
115004.000			9.838			-3.279
115105.000			9.837			-3.279
115203.000			9.836			-3.279
115305.000			9.836			-3.279
115404.000			9.836			-3.279
115504.000			9.836			-3.279
115605.000			9.836			-3.279
115704.000			9.837			-3.279
115804.000			9.836			-3.279
115904.000			9.835			-3.278
116004.000			9.835			-3.278
116104.000			9.834			-3.278
116205.000			9.834			-3.278
116304.000			9.835			-3.278
116404.000			9.834			-3.278
116505.000			9.834			-3.278
116603.000			9.834			-3.278
116704.000			9.834			-3.278
116805.000			9.834			-3.278
116904.000			9.834			-3.278
117004.000			9.834			-3.278
117105.000			9.832			-3.277
117204.000			9.833			-3.278
117303.000			9.832			-3.277
117405.000			9.832			-3.277
117504.000			9.833			-3.278
117604.000			9.832			-3.277
117705.000			9.832			-3.277
117804.000			9.832			-3.277
117904.000			9.832			-3.277
118005.000			9.832			-3.277
118104.000			9.832			-3.277
118203.000			9.831			-3.277
118305.000			9.832			-3.277
118404.000			9.831			-3.277
118505.000			9.830			-3.277
118604.000			9.831			-3.277
118704.000			9.831			-3.277
118805.000			9.831			-3.277
118903.000			9.830			-3.277
119004.000			9.830			-3.277
119105.000			9.829			-3.276
119204.000			9.830			-3.277
119304.000			9.830			-3.277
119405.000			9.830			-3.277
119504.000			9.831			-3.277
119603.000			9.830			-3.277
119705.000			9.829			-3.276
119804.000			9.829			-3.276
119904.000			9.829			-3.276
120005.000			9.830			-3.277
120104.000			9.830			-3.277
120204.000			9.829			-3.276
120304.000			9.830			-3.277
120404.000			9.829			-3.276
120503.000			9.830			-3.277
120605.000			9.830			-3.277
120704.000			9.827			-3.276
120804.000			9.826			-3.275
120905.000			9.826			-3.275
121004.000			9.826			-3.275
121104.000			9.826			-3.275
121204.000			9.825			-3.275
121304.000			9.825			-3.275
121404.000			9.824			-3.275
121504.000			9.824			-3.275
121604.000			9.825			-3.275
121705.000			9.826			-3.275
121804.000			9.825			-3.275
121903.000			9.824			-3.275
122005.000			9.824			-3.275
122104.000			9.823			-3.274
122204.000			9.825			-3.275
122305.000			9.824			-3.275
122404.000			9.824			-3.275
122504.000			9.823			-3.274
122604.000			9.824			-3.275
122704.000			9.823			-3.274
122804.000			9.823			-3.274
122905.000			9.823			-3.274
123004.000			9.823			-3.274
123104.000			9.823			-3.274
123205.000			9.823			-3.274
123303.000			9.823			-3.274
123404.000			9.823			-3.274
123505.000			9.823			-3.274
123604.000			9.821			-3.274
123704.000			9.821			-3.274
123805.000			9.822			-3.274
123904.000			9.822			-3.274
124003.000			9.822			-3.274
124105.000			9.821			-3.274
124204.000			9.821			-3.274
124304.000			9.821			-3.274
124405.000			9.820			-3.273
124504.000			9.820			-3.273
124604.000			9.821			-3.274
124704.000			9.821			-3.274
124804.000			9.821			-3.274
124903.000			9.821			-3.274
125004.000			9.821			-3.274
125104.000			9.820			-3.273
125205.000			9.820			-3.273
125304.000			9.820			-3.273
125404.000			9.820			-3.273
125505.000			9.820			-3.273
125603.000			9.819			-3.273
125704.000			9.819			-3.273
125805.000			9.818			-3.273
125904.000			9.817			-3.272
126004.000			9.817			-3.272
126105.000			9.818			-3.273
126204.000			9.818			-3.273
126303.000			9.818			-3.273
126405.000			9.817			-3.272
126504.000			9.818			-3.273
126604.000			9.818			-3.273
126705.000			9.817			-3.272
126804.000			9.817			-3.272
126904.000			9.816			-3.272
127005.000			9.817			-3.272
127104.000			9.817			-3.272
127203.000			9.817			-3.272
127305.000			9.815			-3.272
127404.000			9.815			-3.272
127504.000			9.815			-3.272
127605.000			9.815			-3.272
127704.000			9.815			-3.272
127804.000			9.815			-3.272
127903.000			9.816			-3.272
128004.000			9.815			-3.272
128105.000			9.815			-3.272
128204.000			9.814			-3.271
128304.000			9.814			-3.271
128405.000			9.814			-3.271
128504.000			9.814			-3.271
128603.000			9.815			-3.272
128705.000			9.814			-3.271
128804.000			9.814			-3.271
128904.000			9.813			-3.271
129005.000			9.814			-3.271
129104.000			9.814			-3.271
129204.000			9.813			-3.271
129304.000			9.812			-3.271
129404.000			9.813			-3.271
129503.000			9.813			-3.271
129605.000			9.813			-3.271
129704.000			9.813			-3.271
129804.000			9.812			-3.271
129905.000			9.812			-3.271
130004.000			9.812			-3.271
130104.000			9.811			-3.270
130204.000			9.812			-3.271
130304.000			9.811			-3.270
130404.000			9.812			-3.271
130505.000			9.811			-3.270
130604.000			9.811			-3.270
130704.000			9.811			-3.270
130805.000			9.811			-3.270
130903.000			9.809			-3.270
131004.000			9.810			-3.270
131105.000			9.810			-3.270
131204.000			9.809			-3.270
131305.000			9.810			-3.270
131404.000			9.811			-3.270
131504.000			9.811			-3.270
131604.000			9.809			-3.270
131704.000			9.809			-3.270
131803.000			9.809			-3.270
131905.000			9.809			-3.270
132004.000			9.809			-3.270
132104.000			9.809			-3.270
132205.000			9.809			-3.270
132304.000			9.808			-3.269
132404.000			9.809			-3.270
132504.000			9.808			-3.269
132604.000			9.808			-3.269
132703.000			9.808			-3.269
132805.000			9.807			-3.269
132904.000			9.807			-3.269
133004.000			9.808			-3.269
133105.000			9.807			-3.269
133204.000			9.808			-3.269
133304.000			9.808			-3.269
133404.000			9.808			-3.269
133504.000			9.808			-3.269
133603.000			9.809			-3.270
133705.000			9.809			-3.270
133804.000			9.808			-3.269
133904.000			9.807			-3.269
134005.000			9.807			-3.269
134104.000			9.807			-3.269
134204.000			9.807			-3.269
134303.000			9.807			-3.269
134404.000			9.806			-3.269
134505.000			9.804			-3.268
134604.000			9.804			-3.268
134704.000			9.803			-3.268
134805.000			9.805			-3.268
134904.000			9.805			-3.268
135004.000			9.805			-3.268
135105.000			9.804			-3.268
135203.000			9.804			-3.268
135304.000			9.805			-3.268
135405.000			9.805			-3.268
135504.000			9.804			-3.268
135604.000			9.804			-3.268
135705.000			9.803			-3.268
135804.000			9.804			-3.268
135904.000			9.803			-3.268
136005.000			9.804			-3.268
136103.000			9.803			-3.268
136204.000			9.804			-3.268
136305.000			9.803			-3.268
136404.000			9.803			-3.268
136504.000			9.803			-3.268
136605.000			9.803			-3.268
136704.000			9.802			-3.267
136804.000			9.803			-3.268
136905.000			9.802			-3.267
137003.000			9.803			-3.268
137104.000			9.802			-3.267
137205.000			9.802			-3.267
137304.000			9.802			-3.267
137404.000			9.801			-3.267
137504.000			9.801			-3.267
137604.000			9.801			-3.267
137705.000			9.801			-3.267
137804.000			9.801			-3.267
137903.000			9.801			-3.267
138005.000			9.801			-3.267
138104.000			9.800			-3.267
138204.000			9.800			-3.267
138305.000			9.799			-3.266
138404.000			9.799			-3.266
138504.000			9.800			-3.267
138605.000			9.800			-3.267
138704.000			9.800			-3.267
138803.000			9.800			-3.267
138905.000			9.800			-3.267
139004.000			9.799			-3.266
139104.000			9.799			-3.266
139205.000			9.800			-3.267
139304.000			9.799			-3.266
139404.000			9.800			-3.267
139505.000			9.800			-3.267
139604.000			9.798			-3.266
139703.000			9.799			-3.266
139805.000			9.798			-3.266
139903.000			9.797			-3.266
140004.000			9.797			-3.266
140105.000			9.796			-3.265
140204.000			9.796			-3.265
140304.000			9.797			-3.266
140405.000			9.797			-3.266
140504.000			9.796			-3.265
140604.000			9.795			-3.265
140705.000			9.795			-3.265
140803.000			9.795			-3.265
140905.000			9.796			-3.265
141004.000			9.795			-3.265
141104.000			9.796			-3.265
141205.000			9.795			-3.265
141304.000			9.795			-3.265
141404.000			9.796			-3.265
141505.000			9.796			-3.265
141604.000			9.796			-3.265
141703.000			9.795			-3.265
141805.000			9.795			-3.265
141904.000			9.795			-3.265
142004.000			9.794			-3.265
142105.000			9.795			-3.265
142204.000			9.795			-3.265
142304.000			9.794			-3.265
142405.000			9.794			-3.265
142504.000			9.795			-3.265
142603.000			9.794			-3.265
142705.000			9.794			-3.265
142804.000			9.794			-3.265
142904.000			9.793			-3.264
143005.000			9.793			-3.264
143104.000			9.793			-3.264
143204.000			9.793			-3.264
143305.000			9.793			-3.264
143404.000			9.792			-3.264
143503.000			9.793			-3.264
143605.000			9.793			-3.264
143704.000			9.792			-3.264
143804.000			9.792			-3.264
143905.000			9.792			-3.264
144004.000			9.793			-3.264
144105.000			9.792			-3.264
144204.000			9.793			-3.264
144304.000			9.792			-3.264
144404.000			9.792			-3.264
144504.000			9.792			-3.264
144604.000			9.792			-3.264
144705.000			9.791			-3.264
144804.000			9.791			-3.264
144904.000			9.791			-3.264
145005.000			9.791			-3.264
145104.000			9.790			-3.263
145204.000			9.790			-3.263
145304.000			9.791			-3.264
145404.000			9.790			-3.263
145503.000			9.790			-3.263
145605.000			9.789			-3.263
145704.000			9.789			-3.263
145804.000			9.790			-3.263
145905.000			9.790			-3.263
146004.000			9.790			-3.263
146104.000			9.789			-3.263
146205.000			9.788			-3.263
146304.000			9.788			-3.263
146403.000			9.789			-3.263
146505.000			9.789			-3.263
146604.000			9.789			-3.263
146704.000			9.788			-3.263
146805.000			9.789			-3.263
146904.000			9.787			-3.262
147004.000			9.787			-3.262
147104.000			9.787			-3.262
147204.000			9.788			-3.263
147303.000			9.788			-3.263
147404.000			9.788			-3.263
147503.000			9.788			-3.263
147605.000			9.786			-3.262
147704.000			9.786			-3.262
147804.000			9.786			-3.262
147905.000			9.786			-3.262
148004.000			9.785			-3.262
148104.000			9.785			-3.262
148205.000			9.785			-3.262
148304.000			9.785			-3.262
148403.000			9.785			-3.262
148505.000			9.786			-3.262
148604.000			9.786			-3.262
148704.000			9.786			-3.262
148805.000			9.786			-3.262
148904.000			9.785			-3.262
149004.000			9.784			-3.261
149105.000			9.784			-3.261
149204.000			9.785			-3.262
149303.000			9.785			-3.262
149405.000			9.785			-3.262
149504.000			9.784			-3.261
149604.000			9.784			-3.261
149705.000			9.785			-3.262
149804.000			9.785			-3.262
149904.000			9.785			-3.262
150005.000			9.784			-3.261
150104.000			9.784			-3.261
150203.000			9.783			-3.261
150305.000			9.783			-3.261
150403.000			9.783			-3.261
150505.000			9.782			-3.261
150604.000			9.782			-3.261
150704.000			9.783			-3.261
150805.000			9.782			-3.261
150904.000			9.783			-3.261
151004.000			9.783			-3.261
151104.000			9.782			-3.261
151204.000			9.783			-3.261
151303.000			9.782			-3.261
151405.000			9.782			-3.261
151504.000			9.781			-3.260
151604.000			9.782			-3.261
151705.000			9.781			-3.260
151804.000			9.781			-3.260
151904.000			9.780			-3.260
152004.000			9.780			-3.260
152104.000			9.781			-3.260
152203.000			9.781			-3.260
152305.000			9.780			-3.260
152404.000			9.781			-3.260
152504.000			9.781			-3.260
152605.000			9.780			-3.260
152704.000			9.780			-3.260
152804.000			9.778			-3.259
152904.000			9.779			-3.260
153004.000			9.780			-3.260
153103.000			9.780			-3.260
153205.000			9.778			-3.259
153304.000			9.778			-3.259
153404.000			9.779			-3.260
153505.000			9.778			-3.259
153604.000			9.777			-3.259
153705.000			9.778			-3.259
153804.000			9.778			-3.259
153904.000			9.778			-3.259
154004.000			9.778			-3.259
154104.000			9.777			-3.259
154204.000			9.777			-3.259
154305.000			9.778			-3.259
154404.000			9.778			-3.259
154504.000			9.777			-3.259
154605.000			9.777			-3.259
154704.000			9.776			-3.259
154804.000			9.775			-3.258
154904.000			9.777			-3.259
155004.000			9.777			-3.259
155104.000			9.776			-3.259
155205.000			9.776			-3.259
155304.000			9.776			-3.259
155404.000			9.776			-3.259
155505.000			9.776			-3.259
155604.000			9.776			-3.259
155704.000			9.776			-3.259
155804.000			9.776			-3.259
155904.000			9.775			-3.258
156003.000			9.776			-3.259
156105.000			9.776			-3.259
156204.000			9.775			-3.258
156304.000			9.775			-3.258
156405.000			9.774			-3.258
156504.000			9.774			-3.258
156604.000			9.774			-3.258
156704.000			9.774			-3.258
156804.000			9.773			-3.258
156903.000			9.774			-3.258
157004.000			9.774			-3.258
157104.000			9.772			-3.257
157205.000			9.773			-3.258
157304.000			9.773			-3.258
157404.000			9.773			-3.258
157505.000			9.773			-3.258
157604.000			9.773			-3.258
157704.000			9.773			-3.258
157804.000			9.771			-3.257
157904.000			9.771			-3.257
158003.000			9.771			-3.257
158105.000			9.771			-3.257
158204.000			9.772			-3.257
158304.000			9.772			-3.257
158405.000			9.773			-3.258
158504.000			9.771			-3.257
158604.000			9.771			-3.257
158704.000			9.772			-3.257
158804.000			9.772			-3.257
158903.000			9.772			-3.257
159005.000			9.772			-3.257
159104.000			9.772			-3.257
159204.000			9.771			-3.257
159305.000			9.770			-3.257
159404.000			9.770			-3.257
159504.000			9.770			-3.257
159604.000			9.770			-3.257
159704.000			9.770			-3.257
159803.000			9.769			-3.256
159905.000			9.769			-3.256
160004.000			9.770			-3.257
160105.000			9.769			-3.256
160204.000			9.769			-3.256
160304.000			9.769			-3.256
160405.000			9.769			-3.256
160504.000			9.768			-3.256
160604.000			9.769			-3.256
160704.000			9.769			-3.256
160804.000			9.768			-3.256
160904.000			9.768			-3.256
161005.000			9.769			-3.256
161104.000			9.769			-3.256
161204.000			9.769			-3.256
161305.000			9.769			-3.256
161404.000			9.768			-3.256
161504.000			9.769			-3.256
161604.000			9.768			-3.256
161704.000			9.768			-3.256
161804.000			9.768			-3.256
161905.000			9.768			-3.256
162004.000			9.769			-3.256
162104.000			9.768			-3.256
162205.000			9.768			-3.256
162304.000			9.768			-3.256
162404.000			9.767			-3.256
162504.000			9.767			-3.256
162604.000			9.766			-3.255
162703.000			9.766			-3.255
162805.000			9.767			-3.256
162904.000			9.767			-3.256
163004.000			9.768			-3.256
163105.000			9.767			-3.256
163204.000			9.767			-3.256
163305.000			9.767			-3.256
163403.000			9.766			-3.255
163504.000			9.766			-3.255
163604.000			9.767			-3.256
163704.000			9.767			-3.256
163804.000			9.766			-3.255
163905.000			9.765			-3.255
164004.000			9.765			-3.255
164104.000			9.767			-3.256
164205.000			9.766			-3.255
164304.000			9.765			-3.255
164404.000			9.765			-3.255
164504.000			9.765			-3.255
164604.000			9.765			-3.255
164704.000			9.765			-3.255
164805.000			9.765			-3.255
164904.000			9.764			-3.255
165004.000			9.764			-3.255
165105.000			9.765			-3.255
165204.000			9.765			-3.255
165304.000			9.764			-3.255
165404.000			9.763			-3.254
165504.000			9.763			-3.254
165604.000			9.763			-3.254
165705.000			9.762			-3.254
165804.000			9.762			-3.254
165904.000			9.762			-3.254
166005.000			9.762			-3.254
166104.000			9.763			-3.254
166204.000			9.762			-3.254
166303.000			9.761			-3.254
166404.000			9.763			-3.254
166503.000			9.761			-3.254
166604.000			9.761			-3.254
166704.000			9.762			-3.254
166805.000			9.762			-3.254
166904.000			9.761			-3.254
167004.000			9.760			-3.253
167105.000			9.761			-3.254
167203.000			9.760			-3.253
167304.000			9.759			-3.253
167404.000			9.759			-3.253
167504.000			9.761			-3.254
167604.000			9.761			-3.254
167705.000			9.761			-3.254
167804.000			9.760			-3.253
167904.000			9.759			-3.253
168005.000			9.759			-3.253
168104.000			9.760			-3.253
168204.000			9.759			-3.253
168304.000			9.759			-3.253
168404.000			9.759			-3.253
168504.000			9.758			-3.253
168605.000			9.758			-3.253
168704.000			9.759			-3.253
168804.000			9.758			-3.253
168905.000			9.758			-3.253
169004.000			9.758			-3.253
169104.000			9.758			-3.253
169204.000			9.759			-3.253
169304.000			9.758			-3.253
169403.000			9.758			-3.253
169505.000			9.759			-3.253
169604.000			9.759			-3.253
169705.000			9.759			-3.253
169804.000			9.757			-3.252
169904.000			9.758			-3.253
170005.000			9.758			-3.253
170104.000			9.757			-3.252
170204.000			9.757			-3.252
170304.000			9.757			-3.252
170404.000			9.757			-3.252
170504.000			9.756			-3.252
170605.000			9.755			-3.252
170704.000			9.755			-3.252
170804.000			9.756			-3.252
170905.000			9.756			-3.252
171004.000			9.755			-3.252
171104.000			9.756			-3.252
171204.000			9.756			-3.252
171304.000			9.756			-3.252
171404.000			9.756			-3.252
171505.000			9.755			-3.252
171604.000			9.756			-3.252
171704.000			9.755			-3.252
171805.000			9.755			-3.252
171904.000			9.756			-3.252
172004.000			9.756			-3.252
172104.000			9.754			-3.251
172204.000			9.753			-3.251
172303.000			9.754			-3.251
172405.000			9.754			-3.251
172504.000			9.754			-3.251
172604.000			9.755			-3.252
172705.000			9.755			-3.252
172804.000			9.755			-3.252
172905.000			9.753			-3.251
173003.000			9.753			-3.251
173104.000			9.753			-3.251
173204.000			9.753			-3.251
173304.000			9.754			-3.251
173404.000			9.754			-3.251
173505.000			9.753			-3.251
173604.000			9.753			-3.251
173704.000			9.753			-3.251
173805.000			9.752			-3.251
173904.000			9.753			-3.251
174004.000			9.753			-3.251
174104.000			9.752			-3.251
174204.000			9.752			-3.251
174304.000			9.752			-3.251
174405.000			9.752			-3.251
174504.000			9.751			-3.250
174604.000			9.751			-3.250
174705.000			9.751			-3.250
174803.000			9.752			-3.251
174904.000			9.752			-3.251
175004.000			9.752			-3.251
175104.000			9.752			-3.251
175204.000			9.751			-3.250
175305.000			9.751			-3.250
175404.000			9.751			-3.250
175504.000			9.751			-3.250
175605.000			9.750			-3.250
175703.000			9.749			-3.250
175804.000			9.750			-3.250
175903.000			9.750			-3.250
176004.000			9.751			-3.250
176105.000			9.749			-3.250
176204.000			9.749			-3.250
176304.000			9.750			-3.250
176405.000			9.750			-3.250
176504.000			9.749			-3.250
176604.000			9.750			-3.250
176705.000			9.749			-3.250
176803.000			9.749			-3.250
176904.000			9.749			-3.250
177005.000			9.749			-3.250
177104.000			9.749			-3.250
177204.000			9.748			-3.249
177305.000			9.748			-3.249
177404.000			9.748			-3.249
177504.000			9.748			-3.249
177605.000			9.749			-3.250
177703.000			9.748			-3.249
177804.000			9.747			-3.249
177904.000			9.748			-3.249
178004.000			9.748			-3.249
178104.000			9.748			-3.249
178205.000			9.747			-3.249
178304.000			9.748			-3.249
178404.000			9.748			-3.249
178505.000			9.748			-3.249
178604.000			9.748			-3.249
178704.000			9.747			-3.249
178804.000			9.746			-3.249
178904.000			9.747			-3.249
179004.000			9.747			-3.249
179104.000			9.746			-3.249
179204.000			9.746			-3.249
179305.000			9.747			-3.249
179404.000			9.747			-3.249
179504.000			9.746			-3.249
179605.000			9.746			-3.249
179703.000			9.745			-3.248
179804.000			9.746			-3.249
179905.000			9.746			-3.249
180004.000			9.745			-3.248
180104.000			9.744			-3.248
180205.000			9.744			-3.248
180304.000			9.744			-3.248
180404.000			9.745			-3.248
180505.000			9.745			-3.248
180603.000			9.744			-3.248
180704.000			9.745			-3.248
180805.000			9.745			-3.248
180904.000			9.745			-3.248
181004.000			9.744			-3.248
181105.000			9.744			-3.248
181204.000			9.744			-3.248
181304.000			9.743			-3.248
181405.000			9.743			-3.248
181503.000			9.743			-3.248
181604.000			9.743			-3.248
181705.000			9.744			-3.248
181804.000			9.744			-3.248
181904.000			9.744			-3.248
182005.000			9.743			-3.248
182104.000			9.743			-3.248
182204.000			9.743			-3.248
182305.000			9.742			-3.247
182403.000			9.742			-3.247
182505.000			9.742			-3.247
182604.000			9.743			-3.248
182704.000			9.743			-3.248
182805.000			9.743			-3.248
182904.000			9.743			-3.248
183004.000			9.743			-3.248
183105.000			9.743			-3.248
183204.000			9.743			-3.248
183303.000			9.742			-3.247
183405.000			9.742			-3.247
183503.000			9.743			-3.248
183604.000			9.741			-3.247
183705.000			9.740			-3.247
183804.000			9.740			-3.247
183904.000			9.740			-3.247
184005.000			9.740			-3.247
184104.000			9.741			-3.247
184204.000			9.741			-3.247
184305.000			9.741			-3.247
184403.000			9.742			-3.247
184504.000			9.741			-3.247
184605.000			9.740			-3.247
184704.000			9.741			-3.247
184804.000			9.740			-3.247
184905.000			9.740			-3.247
185004.000			9.741			-3.247
185104.000			9.740			-3.247
185205.000			9.739			-3.246
185303.000			9.739			-3.246
185404.000			9.739			-3.246
185505.000			9.739			-3.246
185604.000			9.739			-3.246
185705.000			9.739			-3.246
185804.000			9.740			-3.247
185904.000			9.739			-3.246
186005.000			9.739			-3.246
186104.000			9.738			-3.246
186203.000			9.737			-3.246
186305.000			9.738			-3.246
186404.000			9.739			-3.246
186504.000			9.739			-3.246
186605.000			9.739			-3.246
186704.000			9.739			-3.246
186804.000			9.738			-3.246
186905.000			9.738			-3.246
187004.000			9.737			-3.246
187104.000			9.737			-3.246
187205.000			9.737			-3.246
187303.000			9.737			-3.246
187404.000			9.738			-3.246
187505.000			9.738			-3.246
187604.000			9.738			-3.246
187704.000			9.737			-3.246
187805.000			9.736			-3.245
187904.000			9.737			-3.246
188004.000			9.736			-3.245
188105.000			9.735			-3.245
188203.000			9.736			-3.245
188304.000			9.737			-3.246
188405.000			9.737			-3.246
188504.000			9.736			-3.245
188604.000			9.736			-3.245
188704.000			9.735			-3.245
188804.000			9.735			-3.245
188905.000			9.736			-3.245
189004.000			9.736			-3.245
189103.000			9.735			-3.245
189205.000			9.736			-3.245
189303.000			9.736			-3.245
189404.000			9.736			-3.245
189505.000			9.735			-3.245
189604.000			9.734			-3.245
189704.000			9.734			-3.245
189805.000			9.734			-3.245
189904.000			9.734			-3.245
190004.000			9.735			-3.245
190105.000			9.735			-3.245
190203.000			9.734			-3.245
190304.000			9.734			-3.245
190405.000			9.734			-3.245
190504.000			9.733			-3.244
190604.000			9.733			-3.244
190705.000			9.732			-3.244
190804.000			9.733			-3.244
190904.000			9.734			-3.245
191005.000			9.734			-3.245
191103.000			9.734			-3.245
191204.000			9.734			-3.245
191305.000			9.734			-3.245
191404.000			9.733			-3.244
191504.000			9.732			-3.244
191605.000			9.732			-3.244
191704.000			9.733			-3.244
191804.000			9.733			-3.244
191905.000			9.733			-3.244
192003.000			9.732			-3.244
192105.000			9.732			-3.244
192204.000			9.732			-3.244
192304.000			9.733			-3.244
192405.000			9.732			-3.244
192504.000			9.732			-3.244
192604.000			9.732			-3.244
192705.000			9.732			-3.244
192804.000			9.732			-3.244
192903.000			9.731			-3.244
193005.000			9.731			-3.244
193104.000			9.731			-3.244
193204.000			9.732			-3.244
193305.000			9.731			-3.244
193404.000			9.732			-3.244
193504.000			9.731			-3.244
193605.000			9.731			-3.244
193704.000			9.731			-3.244
193803.000			9.731			-3.244
193905.000			9.730			-3.243
194004.000			9.730			-3.243
194104.000			9.730			-3.243
194205.000			9.730			-3.243
194304.000			9.730			-3.243
194404.000			9.729			-3.243
194505.000			9.730			-3.243
194604.000			9.731			-3.244
194703.000			9.732			-3.244
194805.000			9.731			-3.244
194903.000			9.730			-3.243
195004.000			9.730			-3.243
195105.000			9.730			-3.243
195204.000			9.728			-3.243
195305.000			9.728			-3.243
195404.000			9.728			-3.243
195504.000			9.728			-3.243
195605.000			9.728			-3.243
195704.000			9.727			-3.242
195803.000			9.729			-3.243
195905.000			9.729			-3.243
196004.000			9.727			-3.242
196104.000			9.727			-3.242
196205.000			9.729			-3.243
196304.000			9.727			-3.242
196404.000			9.727			-3.242
196505.000			9.727			-3.242
196604.000			9.727			-3.242
196703.000			9.727			-3.242
196805.000			9.727			-3.242
196903.000			9.727			-3.242
197004.000			9.727			-3.242
197105.000			9.727			-3.242
197204.000			9.727			-3.242
197304.000			9.728			-3.243
197405.000			9.727			-3.242
197504.000			9.728			-3.243
197604.000			9.728			-3.243
197705.000			9.727			-3.242
197803.000			9.726			-3.242
197904.000			9.727			-3.242
198005.000			9.726			-3.242
198104.000			9.726			-3.242
198204.000			9.726			-3.242
198304.000			9.725			-3.242
198404.000			9.725			-3.242
198505.000			9.725			-3.242
198604.000			9.726			-3.242
198703.000			9.726			-3.242
198805.000			9.726			-3.242
198904.000			9.725			-3.242
199004.000			9.725			-3.242
199105.000			9.725			-3.242
199204.000			9.725			-3.242
199304.000			9.726			-3.242
199405.000			9.726			-3.242
199504.000			9.725			-3.242
199603.000			9.724			-3.241
199705.000			9.724			-3.241
199803.000			9.724			-3.241
199904.000			9.725			-3.242
200005.000			9.724			-3.241
200104.000			9.724			-3.241
200204.000			9.724			-3.241
200305.000			9.723			-3.241
200404.000			9.723			-3.241
200504.000			9.723			-3.241
200605.000			9.723			-3.241
200703.000			9.724			-3.241
200804.000			9.723			-3.241
200905.000			9.723			-3.241
201004.000			9.722			-3.241
201104.000			9.722			-3.241
201205.000			9.723			-3.241
201304.000			9.723			-3.241
201403.000			9.723			-3.241
201505.000			9.723			-3.241
201604.000			9.722			-3.241
201705.000			9.722			-3.241
201804.000			9.722			-3.241
201904.000			9.722			-3.241
202005.000			9.723			-3.241
202104.000			9.723			-3.241
202204.000			9.721			-3.240
202304.000			9.722			-3.241
202404.000			9.722			-3.241
202504.000			9.721			-3.240
202605.000			9.721			-3.240
202704.000			9.722			-3.241
202804.000			9.722			-3.241
202905.000			9.722			-3.241
203004.000			9.722			-3.241
203104.000			9.721			-3.240
203204.000			9.720			-3.240
203304.000			9.720			-3.240
203404.000			9.721			-3.240
203505.000			9.720			-3.240
203604.000			9.720			-3.240
203704.000			9.721			-3.240
203805.000			9.720			-3.240
203903.000			9.720			-3.240
204004.000			9.720			-3.240
204104.000			9.720			-3.240
204204.000			9.720			-3.240
204304.000			9.719			-3.240
204405.000			9.720			-3.240
204504.000			9.721			-3.240
204604.000			9.720			-3.240
204705.000			9.719			-3.240
204803.000			9.718			-3.239
204905.000			9.718			-3.239
205004.000			9.718			-3.239
205104.000			9.718			-3.239
205205.000			9.719			-3.240
205304.000			9.719			-3.240
205404.000			9.720			-3.240
205505.000			9.719			-3.240
205604.000			9.719			-3.240
205703.000			9.719			-3.240
205805.000			9.720			-3.240
205904.000			9.719			-3.240
206004.000			9.718			-3.239
206105.000			9.718			-3.239
206204.000			9.718			-3.239
206304.000			9.718			-3.239
206405.000			9.718			-3.239
206504.000			9.717			-3.239
206603.000			9.717			-3.239
206705.000			9.718			-3.239
206804.000			9.718			-3.239
206904.000			9.717			-3.239
207005.000			9.717			-3.239
207104.000			9.717			-3.239
207204.000			9.717			-3.239
207305.000			9.718			-3.239
207404.000			9.717			-3.239
207503.000			9.716			-3.239
207605.000			9.717			-3.239
207704.000			9.717			-3.239
207804.000			9.717			-3.239
207905.000			9.717			-3.239
208004.000			9.715			-3.238
208105.000			9.715			-3.238
208204.000			9.716			-3.239
208304.000			9.716			-3.239
208404.000			9.715			-3.238
208504.000			9.715			-3.238
208604.000			9.716			-3.239
208705.000			9.715			-3.238
208804.000			9.715			-3.238
208904.000			9.715			-3.238
209005.000			9.715			-3.238
209104.000			9.715			-3.238
209204.000			9.715			-3.238
209304.000			9.714			-3.238
209404.000			9.714			-3.238
209504.000			9.715			-3.238
209605.000			9.715			-3.238
209704.000			9.714			-3.238
209804.000			9.713			-3.238
209905.000			9.714			-3.238
210004.000			9.714			-3.238
210104.000			9.714			-3.238
210204.000			9.714			-3.238
210304.000			9.713			-3.238
210404.000			9.713			-3.238
210505.000			9.714			-3.238
210604.000			9.713			-3.238
210704.000			9.713			-3.238
210805.000			9.713			-3.238
210903.000			9.712			-3.237
211004.000			9.712			-3.237
211103.000			9.712			-3.237
211204.000			9.711			-3.237
211305.000			9.712			-3.237
211404.000			9.713			-3.238
211504.000			9.713			-3.238
211605.000			9.712			-3.237
211704.000			9.712			-3.237
211803.000			9.712			-3.237
211905.000			9.712			-3.237
212004.000			9.711			-3.237
212104.000			9.711			-3.237
212205.000			9.711			-3.237
212304.000			9.711			-3.237
212404.000			9.711			-3.237
212504.000			9.711			-3.237
212604.000			9.712			-3.237
212703.000			9.712			-3.237
212805.000			9.711			-3.237
212904.000			9.711			-3.237
213004.000			9.711			-3.237
213105.000			9.710			-3.237
213204.000			9.710			-3.237
213304.000			9.711			-3.237
213404.000			9.712			-3.237
213504.000			9.710			-3.237
213603.000			9.710			-3.237
213705.000			9.710			-3.237
213804.000			9.711			-3.237
213904.000			9.711			-3.237
214005.000			9.710			-3.237
214104.000			9.710			-3.237
214204.000			9.711			-3.237
214303.000			9.710			-3.237
214404.000			9.709			-3.236
214505.000			9.709			-3.236
214604.000			9.710			-3.237
214704.000			9.709			-3.236
214805.000			9.709			-3.236
214904.000			9.711			-3.237
215004.000			9.710			-3.237
215105.000			9.710			-3.237
215203.000			9.709			-3.236
215304.000			9.708			-3.236
215405.000			9.708			-3.236
215504.000			9.708			-3.236
215604.000			9.708			-3.236
215705.000			9.708			-3.236
215804.000			9.707			-3.236
215904.000			9.708			-3.236
216005.000			9.708			-3.236
216103.000			9.707			-3.236
216204.000			9.707			-3.236
216305.000			9.707			-3.236
216404.000			9.708			-3.236
216504.000			9.708			-3.236
216605.000			9.707			-3.236
216704.000			9.707			-3.236
216803.000			9.707			-3.236
216905.000			9.708			-3.236
217003.000			9.707			-3.236
217104.000			9.706			-3.235
217205.000			9.706			-3.235
217304.000			9.707			-3.236
217404.000			9.706			-3.235
217504.000			9.705			-3.235
217604.000			9.705			-3.235
217703.000			9.706			-3.235
217804.000			9.707			-3.236
217903.000			9.706			-3.235
218005.000			9.706			-3.235
218104.000			9.707			-3.236
218204.000			9.705			-3.235
218305.000			9.706			-3.235
218404.000			9.706			-3.235
218504.000			9.705			-3.235
218604.000			9.705			-3.235
218704.000			9.705			-3.235
218803.000			9.704			-3.235
218905.000			9.704			-3.235
219004.000			9.704			-3.235
219104.000			9.705			-3.235
219205.000			9.704			-3.235
219304.000			9.704			-3.235
219404.000			9.705			-3.235
219504.000			9.705			-3.235
219604.000			9.704			-3.235
219703.000			9.705			-3.235
219805.000			9.703			-3.234
219904.000			9.704			-3.235
220004.000			9.704			-3.235
220105.000			9.703			-3.234
220204.000			9.703			-3.234
220304.000			9.704			-3.235
220404.000			9.702			-3.234
220504.000			9.703			-3.234
220604.000			9.702			-3.234
220704.000			9.702			-3.234
220804.000			9.702			-3.234
220905.000			9.703			-3.234
221004.000			9.703			-3.234
221104.000			9.703			-3.234
221205.000			9.704			-3.235
221303.000			9.703			-3.234
221404.000			9.703			-3.234
221505.000			9.703			-3.234
221604.000			9.703			-3.234
221704.000			9.702			-3.234
221805.000			9.702			-3.234
221904.000			9.701			-3.234
222003.000			9.701			-3.234
222105.000			9.702			-3.234
222204.000			9.701			-3.234
222304.000			9.701			-3.234
222405.000			9.701			-3.234
222504.000			9.700			-3.233
222604.000			9.700			-3.233
222704.000			9.700			-3.233
222804.000			9.700			-3.233
222903.000			9.700			-3.233
223005.000			9.700			-3.233
223104.000			9.700			-3.233
223204.000			9.701			-3.234
223305.000			9.699			-3.233
223404.000			9.700			-3.233
223504.000			9.700			-3.233
223604.000			9.700			-3.233
223704.000			9.702			-3.234
223803.000			9.701			-3.234
223905.000			9.700			-3.233
224004.000			9.700			-3.233
224105.000			9.700			-3.233
224204.000			9.699			-3.233
224304.000			9.700			-3.233
224405.000			9.700			-3.233
224503.000			9.699			-3.233
224604.000			9.698			-3.233
224704.000			9.699			-3.233
224804.000			9.699			-3.233
224904.000			9.699			-3.233
225005.000			9.698			-3.233
225104.000			9.697			-3.232
225204.000			9.698			-3.233
225305.000			9.699			-3.233
225404.000			9.698			-3.233
225504.000			9.697			-3.232
225604.000			9.698			-3.233
225704.000			9.698			-3.233
225804.000			9.698			-3.233
225905.000			9.698			-3.233
226004.000			9.698			-3.233
226104.000			9.698			-3.233
226205.000			9.697			-3.232
226304.000			9.697			-3.232
226404.000			9.696			-3.232
226504.000			9.697			-3.232
226604.000			9.698			-3.233
226704.000			9.698			-3.233
226805.000			9.697			-3.232
226904.000			9.696			-3.232
227004.000			9.696			-3.232
227105.000			9.696			-3.232
227204.000			9.696			-3.232
227305.000			9.695			-3.232
227403.000			9.696			-3.232
227504.000			9.697			-3.232
227604.000			9.697			-3.232
227704.000			9.697			-3.232
227804.000			9.695			-3.232
227905.000			9.695			-3.232
228004.000			9.695			-3.232
228104.000			9.695			-3.232
228205.000			9.696			-3.232
228304.000			9.696			-3.232
228404.000			9.694			-3.231
228504.000			9.695			-3.232
228604.000			9.696			-3.232
228704.000			9.695			-3.232
228805.000			9.695			-3.232
228904.000			9.694			-3.231
229004.000			9.694			-3.231
229105.000			9.695			-3.232
229204.000			9.694			-3.231
229304.000			9.693			-3.231
229404.000			9.693			-3.231
229504.000			9.694			-3.231
229603.000			9.693			-3.231
229705.000			9.694			-3.231
229804.000			9.694			-3.231
229904.000			9.694			-3.231
230005.000			9.694			-3.231
230104.000			9.693			-3.231
230204.000			9.693			-3.231
230304.000			9.693			-3.231
230404.000			9.693			-3.231
230503.000			9.694			-3.231
230604.000			9.696			-3.232
230704.000			9.695			-3.232
230805.000			9.694			-3.231
230904.000			9.694			-3.231
231004.000			9.694			-3.231
231105.000			9.695			-3.232
231204.000			9.695			-3.232
231304.000			9.694			-3.231
231404.000			9.694			-3.231
231504.000			9.694			-3.231
231604.000			9.694			-3.231
231705.000			9.695			-3.232
231804.000			9.694			-3.231
231904.000			9.694			-3.231
232005.000			9.693			-3.231
232104.000			9.693			-3.231
232204.000			9.693			-3.231
232304.000			9.692			-3.231
232404.000			9.692			-3.231
232504.000			9.693			-3.231
232605.000			9.692			-3.231
232704.000			9.692			-3.231
232804.000			9.692			-3.231
232905.000			9.691			-3.230
233003.000			9.692			-3.231
233104.000			9.693			-3.231
233204.000			9.692			-3.231
233304.000			9.691			-3.230
233404.000			9.692			-3.231
233504.000			9.691			-3.230
233604.000			9.691			-3.230
233705.000			9.691			-3.230
233804.000			9.692			-3.231
233903.000			9.691			-3.230
234005.000			9.690			-3.230
234104.000			9.690			-3.230
234204.000			9.689			-3.230
234305.000			9.689			-3.230
234404.000			9.690			-3.230
234504.000			9.690			-3.230
234605.000			9.690			-3.230
234704.000			9.690			-3.230
234803.000			9.689			-3.230
234905.000			9.689			-3.230
235003.000			9.689			-3.230
235104.000			9.689			-3.230
235205.000			9.690			-3.230
235304.000			9.689			-3.230
235404.000			9.689			-3.230
235505.000			9.689			-3.230
235604.000			9.688			-3.229
235704.000			9.689			-3.230
235805.000			9.689			-3.230
235903.000			9.688			-3.229
236004.000			9.688			-3.229
236105.000			9.690			-3.230
236204.000			9.689			-3.230
236304.000			9.689			-3.230
236405.000			9.687			-3.229
236504.000			9.687			-3.229
236604.000			9.687			-3.229
236705.000			9.687			-3.229
236803.000			9.688			-3.229
236905.000			9.688			-3.229
237003.000			9.688			-3.229
237104.000			9.688			-3.229
237205.000			9.687			-3.229
237304.000			9.688			-3.229
237404.000			9.687			-3.229
237505.000			9.687			-3.229
237604.000			9.687			-3.229
237704.000			9.687			-3.229
237805.000			9.686			-3.229
237903.000			9.687			-3.229
238004.000			9.687			-3.229
238105.000			9.686			-3.229
238204.000			9.686			-3.229
238304.000			9.687			-3.229
238405.000			9.685			-3.228
238504.000			9.685			-3.228
238604.000			9.685			-3.228
238705.000			9.685			-3.228
238803.000			9.686			-3.229
238904.000			9.686			-3.229
239004.000			9.686			-3.229
239104.000			9.685			-3.228
239204.000			9.686			-3.229
239305.000			9.685			-3.228
239404.000			9.685			-3.228
239504.000			9.685			-3.228
239605.000			9.684			-3.228
239704.000			9.684			-3.228
239804.000			9.685			-3.228
239903.000			9.685			-3.228
240004.000			9.684			-3.228
240105.000			9.685			-3.228
240204.000			9.685			-3.228
240304.000			9.684			-3.228
240405.000			9.684			-3.228
240504.000			9.683			-3.228
240604.000			9.683			-3.228
240705.000			9.683			-3.228
240803.000			9.684			-3.228
240904.000			9.684			-3.228
241005.000			9.683			-3.228
241104.000			9.683			-3.228
241204.000			9.683			-3.228
241305.000			9.683			-3.228
241404.000			9.683			-3.228
241504.000			9.682			-3.227
241605.000			9.683			-3.228
241703.000			9.684			-3.228
241804.000			9.684			-3.228
241905.000			9.682			-3.227
242004.000			9.682			-3.227
242104.000			9.683			-3.228
242205.000			9.682			-3.227
242304.000			9.682			-3.227
242403.000			9.682			-3.227
242505.000			9.683			-3.228
242603.000			9.683			-3.228
242704.000			9.682			-3.227
242805.000			9.683			-3.228
242904.000			9.682			-3.227
243004.000			9.681			-3.227
243104.000			9.681			-3.227
243204.000			9.682			-3.227
243305.000			9.682			-3.227
243404.000			9.681			-3.227
243503.000			9.682			-3.227
243605.000			9.681			-3.227
243704.000			9.681			-3.227
243804.000			9.682			-3.227
243905.000			9.681			-3.227
244004.000			9.680			-3.227
244104.000			9.680			-3.227
244204.000			9.681			-3.227
244304.000			9.681			-3.227
244403.000			9.680			-3.227
244505.000			9.681			-3.227
244604.000			9.681			-3.227
244704.000			9.681			-3.227
244805.000			9.680			-3.227
244904.000			9.680			-3.227
245004.000			9.679			-3.226
245105.000			9.680			-3.227
245204.000			9.680			-3.227
245303.000			9.680			-3.227
245405.000			9.680			-3.227
245504.000			9.680			-3.227
245604.000			9.680			-3.227
245705.000			9.681			-3.227
245804.000			9.680			-3.227
245904.000			9.679			-3.226
246005.000			9.679			-3.226
246104.000			9.680			-3.227
246203.000			9.680			-3.227
246305.000			9.679			-3.226
246404.000			9.679			-3.226
246505.000			9.679			-3.226
246604.000			9.679			-3.226
246704.000			9.680			-3.227
246805.000			9.678			-3.226
246904.000			9.678			-3.226
247004.000			9.678			-3.226
247104.000			9.678			-3.226
247204.000			9.678			-3.226
247303.000			9.679			-3.226
247405.000			9.679			-3.226
247504.000			9.679			-3.226
247604.000			9.679			-3.226
247705.000			9.678			-3.226
247804.000			9.678			-3.226
247904.000			9.677			-3.226
248004.000			9.678			-3.226
248104.000			9.678			-3.226
248203.000			9.677			-3.226
248305.000			9.676			-3.225
248404.000			9.677			-3.226
248504.000			9.678			-3.226
248605.000			9.677			-3.226
248704.000			9.677			-3.226
248804.000			9.676			-3.225
248905.000			9.677			-3.226
249004.000			9.677			-3.226
249103.000			9.676			-3.225
249205.000			9.677			-3.226
249304.000			9.676			-3.225
249404.000			9.677			-3.226
249505.000			9.675			-3.225
249604.000			9.676			-3.225
249705.000			9.677			-3.226
249804.000			9.677			-3.226
249904.000			9.676			-3.225
250005.000			9.676			-3.225
250104.000			9.676			-3.225
250203.000			9.676			-3.225
250305.000			9.675			-3.225
250404.000			9.675			-3.225
250504.000			9.675			-3.225
250605.000			9.675			-3.225
250704.000			9.675			-3.225
250804.000			9.675			-3.225
250905.000			9.676			-3.225
251004.000			9.675			-3.225
251103.000			9.674			-3.225
251205.000			9.675			-3.225
251304.000			9.676			-3.225
251404.000			9.676			-3.225
251505.000			9.675			-3.225
251604.000			9.675			-3.225
251704.000			9.676			-3.225
251805.000			9.676			-3.225
251904.000			9.675			-3.225
252003.000			9.675			-3.225
252105.000			9.675			-3.225
252203.000			9.674			-3.225
252304.000			9.674			-3.225
252405.000			9.673			-3.224
252504.000			9.674			-3.225
252604.000			9.674			-3.225
252704.000			9.674			-3.225
252804.000			9.673			-3.224
252903.000			9.673			-3.224
253004.000			9.673			-3.224
253103.000			9.674			-3.225
253205.000			9.673			-3.224
253304.000			9.673			-3.224
253404.000			9.673			-3.224
253505.000			9.672			-3.224
253604.000			9.672			-3.224
253704.000			9.672			-3.224
253804.000			9.674			-3.225
253904.000			9.673			-3.224
254003.000			9.672			-3.224
254105.000			9.672			-3.224
254204.000			9.672			-3.224
254304.000			9.673			-3.224
254405.000			9.673			-3.224
254504.000			9.672			-3.224
254604.000			9.672			-3.224
254704.000			9.671			-3.224
254804.000			9.672			-3.224
254903.000			9.672			-3.224
255005.000			9.672			-3.224
255104.000			9.671			-3.224
255204.000			9.671			-3.224
255305.000			9.670			-3.223
255404.000			9.670			-3.223
255504.000			9.671			-3.224
255605.000			9.672			-3.224
255704.000			9.671			-3.224
255803.000			9.670			-3.223
255905.000			9.670			-3.223
256004.000			9.671			-3.224
256105.000			9.670			-3.223
256204.000			9.670			-3.223
256304.000			9.671			-3.224
256405.000			9.670			-3.223
256504.000			9.670			-3.223
256604.000			9.671			-3.224
256704.000			9.671			-3.224
256804.000			9.670			-3.223
256904.000			9.670			-3.223
257005.000			9.669			-3.223
257104.000			9.670			-3.223
257204.000			9.670			-3.223
257305.000			9.669			-3.223
257404.000			9.670			-3.223
257504.000			9.669			-3.223
257604.000			9.670			-3.223
257704.000			9.670			-3.223
257803.000			9.669			-3.223
257905.000			9.669			-3.223
258004.000			9.669			-3.223
258104.000			9.670			-3.223
258205.000			9.669			-3.223
258304.000			9.669			-3.223
258404.000			9.668			-3.223
258504.000			9.667			-3.222
258604.000			9.668			-3.223
258703.000			9.669			-3.223
258805.000			9.669			-3.223
258904.000			9.668			-3.223
259004.000			9.669			-3.223
259105.000			9.668			-3.223
259204.000			9.668			-3.223
259305.000			9.667			-3.222
259404.000			9.667			-3.222
259504.000			9.667			-3.222
259604.000			9.668			-3.223
259704.000			9.668			-3.223
259803.000			9.667			-3.222
259905.000			9.667			-3.222
260004.000			9.668			-3.223
260104.000			9.667			-3.222
260205.000			9.667			-3.222
260304.000			9.668			-3.223
260404.000			9.667			-3.222
260504.000			9.666			-3.222
260604.000			9.666			-3.222
260703.000			9.667			-3.222
260805.000			9.667			-3.222
260904.000			9.666			-3.222
261004.000			9.666			-3.222
261105.000			9.667			-3.222
261204.000			9.666			-3.222
261304.000			9.666			-3.222
261404.000			9.666			-3.222
261504.000			9.665			-3.222
261603.000			9.665			-3.222
261705.000			9.665			-3.222
261804.000			9.666			-3.222
261904.000			9.665			-3.222
262005.000			9.664			-3.221
262104.000			9.664			-3.221
262204.000			9.665			-3.222
262304.000			9.666			-3.222
262404.000			9.666			-3.222
262503.000			9.665			-3.222
262604.000			9.665			-3.222
262704.000			9.664			-3.221
262805.000			9.665			-3.222
262904.000			9.665			-3.222
263004.000			9.664			-3.221
263105.000			9.664			-3.221
263203.000			9.664			-3.221
263304.000			9.664			-3.221
263404.000			9.663			-3.221
263504.000			9.664			-3.221
263604.000			9.664			-3.221
263705.000			9.665			-3.222
263804.000			9.664			-3.221
263904.000			9.664			-3.221
264005.000			9.664			-3.221
264103.000			9.664			-3.221
264204.000			9.663			-3.221
264304.000			9.663			-3.221
264404.000			9.663			-3.221
264504.000			9.664			-3.221
264605.000			9.664			-3.221
264704.000			9.663			-3.221
264804.000			9.664			-3.221
264905.000			9.664			-3.221
265004.000			9.662			-3.221
265104.000			9.663			-3.221
265204.000			9.665			-3.222
265304.000			9.664			-3.221
265404.000			9.663			-3.221
265504.000			9.663			-3.221
265604.000			9.663			-3.221
265705.000			9.663			-3.221
265804.000			9.663			-3.221
265904.000			9.663			-3.221
266005.000			9.664			-3.221
266103.000			9.663			-3.221
266204.000			9.662			-3.221
266305.000			9.663			-3.221
266404.000			9.663			-3.221
266504.000			9.663			-3.221
266605.000			9.661			-3.220
266704.000			9.660			-3.220
266804.000			9.661			-3.220
266905.000			9.662			-3.221
267003.000			9.663			-3.221
267104.000			9.662			-3.221
267205.000			9.661			-3.220
267304.000			9.661			-3.220
267404.000			9.661			-3.220
267505.000			9.662			-3.221
267604.000			9.661			-3.220
267704.000			9.662			-3.221
267805.000			9.661			-3.220
267903.000			9.661			-3.220
268004.000			9.661			-3.220
268105.000			9.661			-3.220
268204.000			9.661			-3.220
268304.000			9.660			-3.220
268405.000			9.661			-3.220
268504.000			9.661			-3.220
268604.000			9.662			-3.221
268705.000			9.661			-3.220
268803.000			9.660			-3.220
268905.000			9.661			-3.220
269004.000			9.661			-3.220
269104.000			9.660			-3.220
269205.000			9.661			-3.220
269304.000			9.660			-3.220
269404.000			9.660			-3.220
269505.000			9.660			-3.220
269604.000			9.660			-3.220
269703.000			9.660			-3.220
269805.000			9.660			-3.220
269903.000			9.659			-3.220
270004.000			9.660			-3.220
270105.000			9.660			-3.220
270204.000			9.660			-3.220
270304.000			9.660			-3.220
270405.000			9.660			-3.220
270504.000			9.659			-3.220
270603.000			9.659			-3.220
270705.000			9.659			-3.220
270803.000			9.659			-3.220
270904.000			9.659			-3.220
271005.000			9.659			-3.220
271104.000			9.659			-3.220
271204.000			9.659			-3.220
271305.000			9.659			-3.220
271404.000			9.659			-3.220
271504.000			9.658			-3.219
271605.000			9.658			-3.219
271703.000			9.658			-3.219
271804.000			9.657			-3.219
271905.000			9.658			-3.219
272004.000			9.659			-3.220
272105.000			9.658			-3.219
272204.000			9.657			-3.219
272304.000			9.657			-3.219
272405.000			9.657			-3.219
272504.000			9.657			-3.219
272603.000			9.657			-3.219
272705.000			9.658			-3.219
272804.000			9.657			-3.219
272904.000			9.657			-3.219
273005.000			9.657			-3.219
273104.000			9.657			-3.219
273204.000			9.658			-3.219
273305.000			9.657			-3.219
273404.000			9.657			-3.219
273503.000			9.657			-3.219
273605.000			9.657			-3.219
273704.000			9.656			-3.219
273804.000			9.657			-3.219
273905.000			9.656			-3.219
274004.000			9.656			-3.219
274104.000			9.656			-3.219
274205.000			9.656			-3.219
274304.000			9.656			-3.219
274403.000			9.655			-3.218
274505.000			9.655			-3.218
274604.000			9.655			-3.218
274704.000			9.656			-3.219
274805.000			9.656			-3.219
274904.000			9.656			-3.219
275004.000			9.656			-3.219
275104.000			9.656			-3.219
275204.000			9.655			-3.218
275303.000			9.655			-3.218
275404.000			9.654			-3.218
275503.000			9.655			-3.218
275605.000			9.655			-3.218
275704.000			9.654			-3.218
275804.000			9.655			-3.218
275905.000			9.655			-3.218
276004.000			9.655			-3.218
276104.000			9.654			-3.218
276204.000			9.653			-3.218
276304.000			9.654			-3.218
276403.000			9.655			-3.218
276505.000			9.654			-3.218
276604.000			9.655			-3.218
276704.000			9.655			-3.218
276805.000			9.653			-3.218
276904.000			9.654			-3.218
277004.000			9.655			-3.218
277104.000			9.655			-3.218
277204.000			9.654			-3.218
277303.000			9.654			-3.218
277405.000			9.653			-3.218
277504.000			9.653			-3.218
277604.000			9.653			-3.218
277705.000			9.653			-3.218
277804.000			9.654			-3.218
277904.000			9.653			-3.218
278005.000			9.652			-3.217
278104.000			9.652			-3.217
278203.000			9.652			-3.217
278305.000			9.652			-3.217
278404.000			9.653			-3.218
278505.000			9.653			-3.218
278604.000			9.654			-3.218
278704.000			9.653			-3.218
278805.000			9.652			-3.217
278904.000			9.652			-3.217
279004.000			9.652			-3.217
279104.000			9.652			-3.217
279204.000			9.651			-3.217
279303.000			9.652			-3.217
279405.000			9.652			-3.217
279504.000			9.652			-3.217
279604.000			9.651			-3.217
279705.000			9.651			-3.217
279804.000			9.653			-3.218
279904.000			9.652			-3.217
280004.000			9.651			-3.217
280104.000			9.651			-3.217
280203.000			9.650			-3.217
280305.000			9.650			-3.217
280404.000			9.650			-3.217
280504.000			9.651			-3.217
280605.000			9.651			-3.217
280704.000			9.651			-3.217
280804.000			9.650			-3.217
280904.000			9.650			-3.217
281004.000			9.651			-3.217
281103.000			9.650			-3.217
281205.000			9.650			-3.217
281304.000			9.650			-3.217
281404.000			9.650			-3.217
281505.000			9.650			-3.217
281604.000			9.650			-3.217
281705.000			9.649			-3.216
281803.000			9.650			-3.217
281904.000			9.650			-3.217
282004.000			9.650			-3.217
282104.000			9.650			-3.217
282204.000			9.650			-3.217
282305.000			9.649			-3.216
282404.000			9.649			-3.216
282504.000			9.650			-3.217
282605.000			9.650			-3.217
282703.000			9.650			-3.217
282804.000			9.650			-3.217
282904.000			9.650			-3.217
283004.000			9.649			-3.216
283104.000			9.649			-3.216
283205.000			9.649			-3.216
283304.000			9.649			-3.216
283404.000			9.649			-3.216
283505.000			9.649			-3.216
283604.000			9.649			-3.216
283704.000			9.648			-3.216
283804.000			9.650			-3.217
283904.000			9.649			-3.216
284004.000			9.649			-3.216
284105.000			9.648			-3.216
284204.000			9.647			-3.216
284304.000			9.648			-3.216
284405.000			9.648			-3.216
284504.000			9.648			-3.216
284604.000			9.648			-3.216
284703.000			9.648			-3.216
284804.000			9.648			-3.216
284903.000			9.648			-3.216
285004.000			9.647			-3.216
285104.000			9.647			-3.216
285205.000			9.648			-3.216
285304.000			9.648			-3.216
285404.000			9.647			-3.216
285505.000			9.648			-3.216
285604.000			9.648			-3.216
285704.000			9.647			-3.216
285804.000			9.646			-3.215
285904.000			9.647			-3.216
286004.000			9.647			-3.216
286105.000			9.647			-3.216
286204.000			9.647			-3.216
286304.000			9.647			-3.216
286405.000			9.646			-3.215
286504.000			9.646			-3.215
286604.000			9.646			-3.215
286704.000			9.646			-3.215
286804.000			9.647			-3.216
286904.000			9.646			-3.215
287005.000			9.646			-3.215
287104.000			9.647			-3.216
287204.000			9.646			-3.215
287305.000			9.646			-3.215
287404.000			9.647			-3.216
287504.000			9.646			-3.215
287604.000			9.646			-3.215
287704.000			9.646			-3.215
287803.000			9.646			-3.215
287905.000			9.646			-3.215
288004.000			9.647			-3.216
288105.000			9.645			-3.215
288204.000			9.644			-3.215
288304.000			9.645			-3.215
288405.000			9.647			-3.216
288504.000			9.646			-3.215
288604.000			9.645			-3.215
288704.000			9.645			-3.215
288804.000			9.645			-3.215
288904.000			9.645			-3.215
289005.000			9.644			-3.215
289104.000			9.644			-3.215
289204.000			9.645			-3.215
289305.000			9.646			-3.215
289404.000			9.645			-3.215
289504.000			9.645			-3.215
289604.000			9.644			-3.215
289704.000			9.644			-3.215
289804.000			9.644			-3.215
289905.000			9.644			-3.215
290004.000			9.645			-3.215
290104.000			9.645			-3.215
290205.000			9.644			-3.215
290304.000			9.644			-3.215
290404.000			9.645			-3.215
290504.000			9.644			-3.215
290604.000			9.644			-3.215
290703.000			9.644			-3.215
290805.000			9.644			-3.215
290904.000			9.643			-3.214
291004.000			9.643			-3.214
291105.000			9.644			-3.215
291204.000			9.643			-3.214
291305.000			9.643			-3.214
291403.000			9.643			-3.214
291504.000			9.643			-3.214
291604.000			9.644			-3.215
291704.000			9.644			-3.215
291804.000			9.644			-3.215
291905.000			9.643			-3.214
292004.000			9.643			-3.214
292104.000			9.643			-3.214
292205.000			9.642			-3.214
292303.000			9.642			-3.214
292404.000			9.641			-3.214
292504.000			9.642			-3.214
292604.000			9.643			-3.214
292704.000			9.642			-3.214
292805.000			9.642			-3.214
292904.000			9.642			-3.214
293004.000			9.642			-3.214
293105.000			9.642			-3.214
293203.000			9.641			-3.214
293304.000			9.642			-3.214
293404.000			9.641			-3.214
293504.000			9.640			-3.213
293604.000			9.641			-3.214
293705.000			9.641			-3.214
293804.000			9.641			-3.214
293904.000			9.641			-3.214
294005.000			9.641			-3.214
294103.000			9.641			-3.214
294204.000			9.642			-3.214
294303.000			9.641			-3.214
294404.000			9.641			-3.214
294505.000			9.640			-3.213
294604.000			9.640			-3.213
294704.000			9.640			-3.213
294805.000			9.640			-3.213
294904.000			9.640			-3.213
295004.000			9.640			-3.213
295105.000			9.640			-3.213
295203.000			9.640			-3.213
295304.000			9.640			-3.213
295405.000			9.639			-3.213
295504.000			9.640			-3.213
295604.000			9.640			-3.213
295705.000			9.639			-3.213
295804.000			9.639			-3.213
295904.000			9.640			-3.213
296005.000			9.640			-3.213
296103.000			9.639			-3.213
296204.000			9.640			-3.213
296305.000			9.639			-3.213
296404.000			9.639			-3.213
296504.000			9.639			-3.213
296605.000			9.638			-3.213
296704.000			9.637			-3.212
296804.000			9.639			-3.213
296905.000			9.638			-3.213
297003.000			9.638			-3.213
297104.000			9.639			-3.213
297204.000			9.639			-3.213
297304.000			9.639			-3.213
297404.000			9.639			-3.213
297504.000			9.639			-3.213
297604.000			9.638			-3.213
297705.000			9.638			-3.213
297804.000			9.638			-3.213
297904.000			9.638			-3.213
298005.000			9.638			-3.213
298103.000			9.639			-3.213
298204.000			9.638			-3.213
298304.000			9.637			-3.212
298404.000			9.637			-3.212
298504.000			9.637			-3.212
298605.000			9.637			-3.212
298704.000			9.637			-3.212
298804.000			9.637			-3.212
298905.000			9.637			-3.212
299003.000			9.638			-3.213
299104.000			9.638			-3.213
299204.000			9.637			-3.212
299304.000			9.637			-3.212
299404.000			9.637			-3.212
299505.000			9.636			-3.212
299604.000			9.636			-3.212
299704.000			9.636			-3.212
299805.000			9.637			-3.212
299904.000			9.638			-3.213
