# Acquired on 26/01/2024 12:10:04 
# SPIDER: Creep_-4mm_HM077x145x38AA-2
# CREEP MEASUREMENT

# time [ms]		force [N]		stiffness [N/mm]
2.000			18.498			-4.625
103.000			19.473			-4.868
204.000			19.773			-4.943
305.000			19.742			-4.936
404.000			19.654			-4.914
504.000			19.623			-4.906
605.000			19.595			-4.899
704.000			19.571			-4.893
804.000			19.551			-4.888
905.000			19.532			-4.883
1004.000			19.513			-4.878
1103.000			19.496			-4.874
1205.000			19.466			-4.867
1304.000			19.452			-4.863
1404.000			19.440			-4.860
1505.000			19.428			-4.857
1604.000			19.417			-4.854
1704.000			19.406			-4.851
1804.000			19.395			-4.849
1904.000			19.375			-4.844
2004.000			19.366			-4.842
2105.000			19.357			-4.839
2204.000			19.348			-4.837
2304.000			19.340			-4.835
2405.000			19.334			-4.833
2504.000			19.325			-4.831
2605.000			19.309			-4.827
2704.000			19.303			-4.826
2804.000			19.296			-4.824
2905.000			19.289			-4.822
3003.000			19.283			-4.821
3104.000			19.277			-4.819
3205.000			19.271			-4.818
3304.000			19.264			-4.816
3404.000			19.255			-4.814
3505.000			19.249			-4.812
3604.000			19.244			-4.811
3703.000			19.238			-4.810
3805.000			19.232			-4.808
3904.000			19.227			-4.807
4004.000			19.222			-4.806
4105.000			19.213			-4.803
4204.000			19.208			-4.802
4304.000			19.203			-4.801
4404.000			19.199			-4.800
4504.000			19.194			-4.798
4604.000			19.190			-4.798
4705.000			19.185			-4.796
4804.000			19.177			-4.794
4903.000			19.173			-4.793
5005.000			19.168			-4.792
5104.000			19.164			-4.791
5204.000			19.161			-4.790
5305.000			19.157			-4.789
5404.000			19.153			-4.788
5504.000			19.146			-4.786
5603.000			19.142			-4.786
5704.000			19.139			-4.785
5805.000			19.135			-4.784
5904.000			19.131			-4.783
6004.000			19.127			-4.782
6105.000			19.124			-4.781
6204.000			19.122			-4.780
6303.000			19.114			-4.779
6405.000			19.112			-4.778
6504.000			19.109			-4.777
6604.000			19.104			-4.776
6705.000			19.101			-4.775
6803.000			19.098			-4.775
6904.000			19.096			-4.774
7005.000			19.089			-4.772
7104.000			19.086			-4.772
7204.000			19.084			-4.771
7305.000			19.081			-4.770
7404.000			19.077			-4.769
7503.000			19.074			-4.769
7605.000			19.071			-4.768
7704.000			19.066			-4.767
7804.000			19.064			-4.766
7905.000			19.061			-4.765
8004.000			19.058			-4.764
8104.000			19.055			-4.764
8204.000			19.053			-4.763
8304.000			19.050			-4.763
8404.000			19.046			-4.761
8505.000			19.043			-4.761
8604.000			19.040			-4.760
8703.000			19.038			-4.760
8805.000			19.035			-4.759
8904.000			19.032			-4.758
9005.000			19.029			-4.757
9104.000			19.027			-4.757
9204.000			19.022			-4.756
9305.000			19.020			-4.755
9403.000			19.017			-4.754
9504.000			19.014			-4.754
9605.000			19.011			-4.753
9704.000			19.009			-4.752
9804.000			19.008			-4.752
9904.000			19.004			-4.751
10004.000			19.002			-4.750
10104.000			18.999			-4.750
10205.000			18.997			-4.749
10304.000			18.994			-4.749
10404.000			18.993			-4.748
10505.000			18.991			-4.748
10603.000			18.987			-4.747
10704.000			18.984			-4.746
10805.000			18.982			-4.745
10904.000			18.980			-4.745
11004.000			18.978			-4.744
11105.000			18.976			-4.744
11204.000			18.974			-4.744
11303.000			18.973			-4.743
11405.000			18.968			-4.742
11504.000			18.968			-4.742
11604.000			18.965			-4.741
11705.000			18.962			-4.740
11804.000			18.960			-4.740
11904.000			18.959			-4.740
12004.000			18.957			-4.739
12104.000			18.953			-4.738
12203.000			18.952			-4.738
12304.000			18.950			-4.738
12404.000			18.949			-4.737
12505.000			18.947			-4.737
12604.000			18.944			-4.736
12703.000			18.943			-4.736
12805.000			18.940			-4.735
12904.000			18.937			-4.734
13004.000			18.935			-4.734
13105.000			18.935			-4.734
13204.000			18.933			-4.733
13304.000			18.931			-4.733
13404.000			18.928			-4.732
13504.000			18.927			-4.732
13604.000			18.923			-4.731
13705.000			18.922			-4.730
13804.000			18.920			-4.730
13904.000			18.918			-4.730
14005.000			18.917			-4.729
14103.000			18.915			-4.729
14204.000			18.914			-4.729
14305.000			18.912			-4.728
14404.000			18.910			-4.727
14504.000			18.907			-4.727
14605.000			18.907			-4.727
14704.000			18.905			-4.726
14803.000			18.903			-4.726
14905.000			18.901			-4.725
15004.000			18.898			-4.725
15104.000			18.898			-4.724
15205.000			18.895			-4.724
15304.000			18.894			-4.724
15405.000			18.893			-4.723
15504.000			18.891			-4.723
15604.000			18.890			-4.722
15704.000			18.887			-4.722
15804.000			18.885			-4.721
15904.000			18.884			-4.721
16005.000			18.882			-4.721
16104.000			18.881			-4.720
16204.000			18.879			-4.720
16305.000			18.878			-4.719
16403.000			18.877			-4.719
16504.000			18.874			-4.718
16605.000			18.873			-4.718
16704.000			18.871			-4.718
16804.000			18.868			-4.717
16905.000			18.868			-4.717
17004.000			18.866			-4.717
17103.000			18.865			-4.716
17205.000			18.863			-4.716
17304.000			18.861			-4.715
17404.000			18.858			-4.715
17505.000			18.857			-4.714
17604.000			18.857			-4.714
17704.000			18.854			-4.714
17804.000			18.853			-4.713
17904.000			18.851			-4.713
18004.000			18.850			-4.712
18105.000			18.848			-4.712
18204.000			18.847			-4.712
18304.000			18.846			-4.712
18405.000			18.845			-4.711
18503.000			18.844			-4.711
18605.000			18.842			-4.710
18704.000			18.841			-4.710
18804.000			18.839			-4.710
18905.000			18.837			-4.709
19004.000			18.836			-4.709
19104.000			18.835			-4.709
19204.000			18.834			-4.708
19304.000			18.832			-4.708
19404.000			18.830			-4.707
19505.000			18.829			-4.707
19604.000			18.828			-4.707
19704.000			18.827			-4.707
19805.000			18.826			-4.707
19903.000			18.824			-4.706
20004.000			18.823			-4.706
20105.000			18.822			-4.705
20204.000			18.821			-4.705
20304.000			18.819			-4.705
20405.000			18.818			-4.704
20504.000			18.817			-4.704
20603.000			18.816			-4.704
20705.000			18.814			-4.704
20804.000			18.813			-4.703
20904.000			18.811			-4.703
21005.000			18.811			-4.703
21104.000			18.810			-4.702
21204.000			18.807			-4.702
21304.000			18.806			-4.702
21404.000			18.805			-4.701
21504.000			4.978			-1.244
21604.000			-21.824			5.456
21704.000			18.801			-4.700
21803.000			18.799			-4.700
21904.000			18.799			-4.700
22003.000			18.799			-4.700
22105.000			18.798			-4.699
22204.000			18.796			-4.699
22304.000			18.795			-4.699
22405.000			18.793			-4.698
22504.000			18.792			-4.698
22604.000			18.791			-4.698
22704.000			18.790			-4.697
22804.000			18.789			-4.697
22904.000			18.788			-4.697
23005.000			18.785			-4.696
23104.000			18.785			-4.696
23204.000			18.784			-4.696
23305.000			18.783			-4.696
23403.000			18.782			-4.696
23504.000			18.781			-4.695
23605.000			18.780			-4.695
23704.000			18.777			-4.694
23804.000			18.777			-4.694
23905.000			18.776			-4.694
24004.000			18.775			-4.694
24103.000			18.774			-4.694
24205.000			18.773			-4.693
24304.000			18.772			-4.693
24404.000			18.772			-4.693
24505.000			18.768			-4.692
24604.000			18.767			-4.692
24704.000			18.766			-4.692
24803.000			18.766			-4.691
24904.000			18.763			-4.691
25005.000			18.762			-4.691
25104.000			18.762			-4.691
25204.000			18.761			-4.690
25305.000			18.760			-4.690
25404.000			18.758			-4.690
25503.000			18.756			-4.689
25605.000			18.756			-4.689
25704.000			18.755			-4.689
25804.000			18.753			-4.688
25905.000			18.751			-4.688
26004.000			18.751			-4.688
26104.000			18.751			-4.688
26204.000			18.749			-4.687
26304.000			18.748			-4.687
26404.000			18.748			-4.687
26505.000			18.747			-4.687
26604.000			18.747			-4.687
26704.000			18.745			-4.686
26805.000			18.744			-4.686
26903.000			18.742			-4.685
27004.000			18.740			-4.685
27105.000			18.740			-4.685
27204.000			18.740			-4.685
27304.000			18.738			-4.684
27405.000			18.736			-4.684
27504.000			18.736			-4.684
27603.000			18.736			-4.684
27705.000			18.734			-4.684
27804.000			18.734			-4.683
27904.000			18.732			-4.683
28005.000			18.731			-4.683
28104.000			18.730			-4.683
28205.000			18.729			-4.682
28303.000			18.728			-4.682
28404.000			18.727			-4.682
28505.000			18.726			-4.681
28604.000			18.724			-4.681
28704.000			18.723			-4.681
28805.000			18.724			-4.681
28904.000			18.722			-4.680
29003.000			18.720			-4.680
29105.000			18.720			-4.680
29204.000			18.720			-4.680
29304.000			18.718			-4.680
29405.000			18.717			-4.679
29504.000			18.715			-4.679
29604.000			18.714			-4.679
29704.000			18.714			-4.679
29804.000			18.714			-4.678
29904.000			18.712			-4.678
30005.000			18.712			-4.678
30104.000			18.711			-4.678
30203.000			18.710			-4.678
30305.000			18.708			-4.677
30404.000			18.707			-4.677
30504.000			18.706			-4.676
30605.000			18.706			-4.676
30704.000			18.705			-4.676
30804.000			18.705			-4.676
30904.000			18.704			-4.676
31004.000			18.702			-4.676
31104.000			18.701			-4.675
31204.000			18.699			-4.675
31304.000			18.699			-4.675
31405.000			18.700			-4.675
31504.000			18.698			-4.674
31603.000			18.697			-4.674
31705.000			18.696			-4.674
31804.000			18.694			-4.674
31904.000			18.694			-4.673
32005.000			18.694			-4.673
32104.000			18.693			-4.673
32204.000			18.692			-4.673
32304.000			18.692			-4.673
32404.000			18.690			-4.673
32503.000			18.689			-4.672
32605.000			18.688			-4.672
32704.000			18.687			-4.672
32804.000			18.686			-4.672
32905.000			18.687			-4.672
33004.000			18.685			-4.671
33104.000			18.684			-4.671
33204.000			18.684			-4.671
33304.000			18.683			-4.671
33404.000			18.683			-4.671
33505.000			18.682			-4.670
33604.000			18.681			-4.670
33704.000			18.680			-4.670
33805.000			18.679			-4.670
33903.000			18.677			-4.669
34004.000			18.677			-4.669
34105.000			18.677			-4.669
34204.000			18.675			-4.669
34304.000			18.675			-4.669
34404.000			18.675			-4.669
34504.000			18.674			-4.668
34603.000			18.673			-4.668
34704.000			18.672			-4.668
34804.000			18.670			-4.668
34905.000			18.670			-4.667
35004.000			18.671			-4.668
35104.000			18.671			-4.668
35205.000			18.669			-4.667
35303.000			18.668			-4.667
35404.000			18.667			-4.667
35505.000			18.665			-4.666
35604.000			18.666			-4.666
35704.000			18.665			-4.666
35805.000			18.664			-4.666
35904.000			18.663			-4.666
36003.000			18.663			-4.666
36105.000			18.661			-4.665
36204.000			18.660			-4.665
36304.000			18.660			-4.665
36405.000			18.661			-4.665
36504.000			18.659			-4.665
36604.000			18.659			-4.665
36704.000			18.659			-4.665
36804.000			18.658			-4.664
36904.000			18.656			-4.664
37005.000			18.655			-4.664
37104.000			18.654			-4.663
37204.000			18.653			-4.663
37305.000			18.653			-4.663
37403.000			18.652			-4.663
37504.000			18.651			-4.663
37605.000			18.651			-4.663
37704.000			18.650			-4.662
37805.000			18.648			-4.662
37904.000			18.648			-4.662
38004.000			18.648			-4.662
38104.000			18.646			-4.662
38204.000			18.645			-4.661
38304.000			18.646			-4.661
38405.000			18.644			-4.661
38504.000			18.644			-4.661
38604.000			18.644			-4.661
38705.000			18.643			-4.661
38803.000			18.642			-4.661
38904.000			18.641			-4.660
39005.000			18.640			-4.660
39104.000			18.639			-4.660
39204.000			18.639			-4.660
39305.000			18.639			-4.660
39404.000			18.638			-4.659
39503.000			18.638			-4.659
39605.000			18.636			-4.659
39704.000			18.635			-4.659
39804.000			18.635			-4.659
39905.000			18.634			-4.658
40004.000			18.634			-4.659
40104.000			18.634			-4.659
40204.000			18.633			-4.658
40304.000			18.634			-4.658
40404.000			18.632			-4.658
40505.000			18.630			-4.658
40604.000			18.629			-4.657
40703.000			18.629			-4.657
40805.000			18.629			-4.657
40904.000			18.628			-4.657
41005.000			18.628			-4.657
41104.000			18.627			-4.657
41204.000			18.626			-4.656
41305.000			18.625			-4.656
41403.000			18.624			-4.656
41504.000			18.623			-4.656
41605.000			18.623			-4.656
41704.000			18.623			-4.656
41804.000			18.622			-4.656
41905.000			18.621			-4.655
42004.000			18.620			-4.655
42103.000			18.620			-4.655
42205.000			18.618			-4.655
42304.000			18.618			-4.655
42404.000			18.617			-4.654
42505.000			18.616			-4.654
42604.000			18.616			-4.654
42704.000			18.614			-4.654
42804.000			18.614			-4.653
42904.000			18.613			-4.653
43004.000			18.612			-4.653
43105.000			18.612			-4.653
43204.000			18.612			-4.653
43304.000			18.611			-4.653
43405.000			18.611			-4.653
43503.000			18.609			-4.652
43604.000			18.608			-4.652
43705.000			18.607			-4.652
43804.000			18.607			-4.652
43904.000			18.607			-4.652
44004.000			18.606			-4.652
44104.000			18.604			-4.651
44203.000			18.605			-4.651
44304.000			18.605			-4.651
44404.000			18.604			-4.651
44505.000			18.603			-4.651
44604.000			18.603			-4.651
44704.000			18.602			-4.650
44805.000			18.600			-4.650
44903.000			18.601			-4.650
45004.000			18.599			-4.650
45105.000			18.598			-4.650
45204.000			18.599			-4.650
45304.000			18.598			-4.650
45405.000			18.597			-4.649
45504.000			18.597			-4.649
45603.000			18.595			-4.649
45705.000			18.596			-4.649
45804.000			18.595			-4.649
45904.000			18.594			-4.649
46005.000			18.594			-4.648
46104.000			18.592			-4.648
46204.000			18.592			-4.648
46304.000			18.591			-4.648
46404.000			18.591			-4.648
46504.000			18.590			-4.647
46605.000			18.589			-4.647
46704.000			18.589			-4.647
46804.000			18.588			-4.647
46905.000			18.588			-4.647
47004.000			18.587			-4.647
47104.000			18.585			-4.646
47203.000			18.586			-4.646
47304.000			18.586			-4.646
47405.000			18.584			-4.646
47504.000			18.584			-4.646
47604.000			18.583			-4.646
47705.000			18.583			-4.646
47804.000			18.582			-4.645
47903.000			18.581			-4.645
48005.000			18.581			-4.645
48104.000			18.580			-4.645
48204.000			18.580			-4.645
48305.000			18.579			-4.645
48404.000			18.579			-4.645
48504.000			18.579			-4.645
48604.000			18.578			-4.645
48704.000			18.577			-4.644
48804.000			18.576			-4.644
48905.000			18.576			-4.644
49004.000			18.575			-4.644
49104.000			18.576			-4.644
49205.000			18.574			-4.643
49303.000			18.573			-4.643
49404.000			18.572			-4.643
49505.000			18.572			-4.643
49604.000			18.572			-4.643
49704.000			18.572			-4.643
49805.000			18.571			-4.643
49904.000			18.570			-4.643
50003.000			18.568			-4.642
50105.000			18.569			-4.642
50204.000			18.569			-4.642
50304.000			18.568			-4.642
50405.000			18.568			-4.642
50504.000			18.568			-4.642
50605.000			18.567			-4.642
50703.000			18.565			-4.641
50804.000			18.565			-4.641
50905.000			18.565			-4.641
51004.000			18.565			-4.641
51104.000			18.564			-4.641
51205.000			18.563			-4.641
51304.000			18.562			-4.641
51403.000			18.562			-4.640
51505.000			18.561			-4.640
51604.000			18.561			-4.640
51704.000			18.561			-4.640
51805.000			18.560			-4.640
51904.000			18.560			-4.640
52004.000			18.560			-4.640
52104.000			18.558			-4.639
52204.000			18.558			-4.639
52304.000			18.557			-4.639
52405.000			18.557			-4.639
52504.000			18.557			-4.639
52604.000			18.556			-4.639
52705.000			18.556			-4.639
52803.000			18.555			-4.639
52904.000			18.553			-4.638
53005.000			18.553			-4.638
53104.000			18.552			-4.638
53204.000			18.551			-4.638
53305.000			18.551			-4.638
53404.000			18.551			-4.638
53503.000			18.551			-4.638
53605.000			18.549			-4.637
53704.000			18.548			-4.637
53805.000			18.549			-4.637
53904.000			18.547			-4.637
54004.000			18.547			-4.637
54105.000			18.547			-4.637
54203.000			18.547			-4.637
54304.000			18.546			-4.636
54405.000			18.546			-4.636
54504.000			18.546			-4.636
54604.000			18.546			-4.636
54705.000			18.545			-4.636
54804.000			18.544			-4.636
54903.000			18.543			-4.636
55005.000			18.544			-4.636
55104.000			18.543			-4.636
55204.000			18.541			-4.635
55305.000			18.541			-4.635
55404.000			18.541			-4.635
55504.000			18.540			-4.635
55604.000			18.539			-4.635
55704.000			18.539			-4.635
55804.000			18.539			-4.635
55905.000			18.538			-4.634
56004.000			18.537			-4.634
56104.000			18.537			-4.634
56205.000			18.536			-4.634
56303.000			18.536			-4.634
56404.000			18.535			-4.634
56505.000			18.536			-4.634
56604.000			18.535			-4.634
56704.000			18.533			-4.633
56804.000			18.534			-4.634
56904.000			18.534			-4.634
57003.000			18.533			-4.633
57104.000			18.532			-4.633
57204.000			18.533			-4.633
57305.000			18.532			-4.633
57404.000			18.530			-4.633
57504.000			18.530			-4.632
57605.000			18.530			-4.633
57703.000			18.530			-4.632
57804.000			18.529			-4.632
57905.000			18.528			-4.632
58004.000			18.527			-4.632
58104.000			18.527			-4.632
58205.000			18.527			-4.632
58304.000			18.526			-4.632
58403.000			18.525			-4.631
58505.000			18.526			-4.631
58604.000			18.525			-4.631
58704.000			18.524			-4.631
58805.000			18.523			-4.631
58904.000			18.524			-4.631
59004.000			18.524			-4.631
59104.000			18.523			-4.631
59204.000			18.523			-4.631
59304.000			18.522			-4.631
59405.000			18.521			-4.630
59504.000			18.520			-4.630
59604.000			18.519			-4.630
59705.000			18.520			-4.630
59803.000			18.520			-4.630
59904.000			18.520			-4.630
60005.000			18.519			-4.630
60104.000			18.518			-4.630
60205.000			18.517			-4.629
60304.000			18.517			-4.629
60404.000			18.516			-4.629
60504.000			18.516			-4.629
60604.000			18.516			-4.629
60704.000			18.516			-4.629
60805.000			18.515			-4.629
60904.000			18.514			-4.629
61004.000			18.514			-4.628
61105.000			18.512			-4.628
61204.000			18.511			-4.628
61304.000			18.512			-4.628
61405.000			18.512			-4.628
61504.000			18.510			-4.628
61604.000			18.510			-4.628
61704.000			18.510			-4.627
61804.000			18.510			-4.627
61904.000			18.510			-4.627
62005.000			18.509			-4.627
62104.000			18.507			-4.627
62204.000			18.508			-4.627
62305.000			18.507			-4.627
62403.000			18.506			-4.627
62504.000			18.504			-4.626
62605.000			18.505			-4.626
62704.000			18.506			-4.627
62804.000			18.506			-4.627
62905.000			18.505			-4.626
63004.000			18.505			-4.626
63103.000			18.504			-4.626
63205.000			18.504			-4.626
63304.000			18.503			-4.626
63405.000			18.502			-4.626
63504.000			18.502			-4.626
63604.000			18.501			-4.625
63705.000			18.501			-4.625
63803.000			18.499			-4.625
63904.000			18.498			-4.625
64005.000			18.497			-4.624
64104.000			18.497			-4.624
64204.000			18.497			-4.624
64305.000			18.497			-4.624
64404.000			18.497			-4.624
64503.000			18.496			-4.624
64605.000			18.496			-4.624
64704.000			18.495			-4.624
64804.000			18.495			-4.624
64905.000			18.495			-4.624
65004.000			18.495			-4.624
65104.000			18.494			-4.624
65204.000			18.494			-4.623
65304.000			18.494			-4.624
65404.000			18.493			-4.623
65505.000			18.492			-4.623
65604.000			18.492			-4.623
65704.000			18.493			-4.623
65805.000			18.493			-4.623
65903.000			18.492			-4.623
66004.000			18.490			-4.622
66105.000			18.490			-4.622
66204.000			18.489			-4.622
66304.000			18.489			-4.622
66404.000			18.489			-4.622
66504.000			18.488			-4.622
66603.000			18.488			-4.622
66704.000			18.487			-4.622
66803.000			18.486			-4.621
66905.000			18.485			-4.621
67004.000			18.485			-4.621
67104.000			18.485			-4.621
67205.000			18.484			-4.621
67304.000			18.485			-4.621
67404.000			18.483			-4.621
67504.000			18.483			-4.621
67604.000			18.481			-4.620
67704.000			18.480			-4.620
67805.000			18.481			-4.620
67904.000			18.481			-4.620
68004.000			18.480			-4.620
68105.000			18.480			-4.620
68203.000			18.479			-4.620
68304.000			18.479			-4.620
68405.000			18.479			-4.620
68504.000			18.479			-4.620
68604.000			18.478			-4.620
68705.000			18.478			-4.619
68804.000			18.478			-4.620
68903.000			18.477			-4.619
69005.000			18.477			-4.619
69104.000			18.476			-4.619
69204.000			18.476			-4.619
69305.000			18.475			-4.619
69404.000			18.474			-4.619
69504.000			18.474			-4.619
69603.000			18.473			-4.618
69704.000			18.473			-4.618
69803.000			18.472			-4.618
69904.000			18.472			-4.618
70004.000			18.471			-4.618
70105.000			18.471			-4.618
70204.000			18.471			-4.618
70303.000			18.471			-4.618
70405.000			18.470			-4.618
70504.000			18.470			-4.617
70604.000			18.469			-4.617
70705.000			18.469			-4.617
70804.000			18.468			-4.617
70904.000			18.468			-4.617
71005.000			18.468			-4.617
71104.000			18.467			-4.617
71203.000			18.467			-4.617
71305.000			18.466			-4.617
71404.000			18.466			-4.617
71504.000			18.467			-4.617
71605.000			18.467			-4.617
71704.000			18.466			-4.616
71804.000			18.464			-4.616
71904.000			18.464			-4.616
72004.000			18.463			-4.616
72104.000			18.464			-4.616
72205.000			18.463			-4.616
72304.000			18.463			-4.616
72404.000			18.463			-4.616
72505.000			18.462			-4.616
72603.000			18.461			-4.615
72704.000			18.462			-4.615
72805.000			18.462			-4.615
72904.000			18.461			-4.615
73005.000			18.461			-4.615
73104.000			18.459			-4.615
73204.000			18.459			-4.615
73304.000			18.458			-4.614
73404.000			18.458			-4.615
73504.000			18.458			-4.615
73605.000			18.458			-4.614
73704.000			18.457			-4.614
73804.000			18.456			-4.614
73905.000			18.456			-4.614
74003.000			18.456			-4.614
74104.000			18.456			-4.614
74205.000			18.455			-4.614
74304.000			18.455			-4.614
74404.000			18.455			-4.614
74505.000			18.454			-4.614
74604.000			18.454			-4.613
74703.000			18.454			-4.613
74805.000			18.454			-4.613
74904.000			18.453			-4.613
75004.000			18.453			-4.613
75105.000			18.454			-4.613
75204.000			18.454			-4.613
75304.000			18.453			-4.613
75404.000			18.452			-4.613
75504.000			18.452			-4.613
75604.000			18.453			-4.613
75705.000			18.453			-4.613
75804.000			18.453			-4.613
75904.000			18.452			-4.613
76005.000			18.452			-4.613
76103.000			18.451			-4.613
76205.000			18.450			-4.613
76304.000			18.451			-4.613
76404.000			18.450			-4.612
76505.000			18.450			-4.613
76604.000			18.450			-4.613
76704.000			18.451			-4.613
76804.000			18.451			-4.613
76904.000			18.450			-4.612
77004.000			18.450			-4.613
77105.000			18.450			-4.612
77204.000			18.450			-4.612
77304.000			18.448			-4.612
77405.000			18.447			-4.612
77503.000			18.447			-4.612
77604.000			18.446			-4.611
77705.000			18.445			-4.611
77804.000			18.447			-4.612
77904.000			18.446			-4.612
78005.000			18.445			-4.611
78104.000			18.445			-4.611
78204.000			18.444			-4.611
78305.000			18.443			-4.611
78403.000			18.443			-4.611
78504.000			18.442			-4.611
78605.000			18.442			-4.611
78704.000			18.441			-4.610
78804.000			18.441			-4.610
78905.000			18.440			-4.610
79004.000			18.439			-4.610
79103.000			18.438			-4.610
79205.000			18.439			-4.610
79304.000			18.438			-4.610
79405.000			18.437			-4.609
79504.000			18.436			-4.609
79604.000			18.437			-4.609
79705.000			18.437			-4.609
79803.000			18.436			-4.609
79904.000			18.434			-4.609
80005.000			18.434			-4.609
80104.000			18.434			-4.608
80204.000			18.433			-4.608
80305.000			18.433			-4.608
80404.000			18.433			-4.608
80503.000			18.433			-4.608
80605.000			18.432			-4.608
80704.000			18.431			-4.608
80804.000			18.431			-4.608
80905.000			18.430			-4.608
81004.000			18.430			-4.607
81104.000			18.430			-4.607
81204.000			18.429			-4.607
81304.000			18.429			-4.607
81404.000			18.429			-4.607
81505.000			18.429			-4.607
81604.000			18.429			-4.607
81704.000			18.429			-4.607
81805.000			18.428			-4.607
81903.000			18.428			-4.607
82004.000			18.428			-4.607
82105.000			18.427			-4.607
82204.000			18.426			-4.606
82304.000			18.426			-4.607
82404.000			18.426			-4.607
82504.000			18.426			-4.606
82603.000			18.426			-4.607
82704.000			18.425			-4.606
82804.000			18.425			-4.606
82905.000			18.424			-4.606
83004.000			18.423			-4.606
83104.000			18.423			-4.606
83205.000			18.423			-4.606
83303.000			18.422			-4.606
83404.000			18.423			-4.606
83505.000			18.423			-4.606
83604.000			18.422			-4.605
83704.000			18.422			-4.606
83804.000			18.422			-4.606
83904.000			18.420			-4.605
84003.000			18.421			-4.605
84105.000			18.420			-4.605
84204.000			18.418			-4.605
84304.000			18.419			-4.605
84405.000			18.418			-4.605
84504.000			18.419			-4.605
84604.000			18.418			-4.605
84704.000			18.417			-4.604
84804.000			18.417			-4.604
84904.000			18.416			-4.604
85005.000			18.416			-4.604
85104.000			18.415			-4.604
85204.000			18.415			-4.604
85305.000			18.415			-4.604
85403.000			18.416			-4.604
85504.000			18.415			-4.604
85605.000			18.414			-4.604
85704.000			18.414			-4.603
85805.000			18.413			-4.603
85904.000			18.413			-4.603
86004.000			18.413			-4.603
86104.000			18.412			-4.603
86204.000			18.414			-4.603
86304.000			18.411			-4.603
86405.000			18.412			-4.603
86504.000			18.412			-4.603
86604.000			18.411			-4.603
86705.000			18.412			-4.603
86803.000			18.412			-4.603
86904.000			18.411			-4.603
87005.000			18.409			-4.602
87104.000			18.408			-4.602
87204.000			18.409			-4.602
87305.000			18.409			-4.602
87404.000			18.409			-4.602
87503.000			18.408			-4.602
87605.000			18.408			-4.602
87704.000			18.407			-4.602
87804.000			18.407			-4.602
87905.000			18.407			-4.602
88004.000			18.406			-4.602
88104.000			18.407			-4.602
88204.000			18.406			-4.601
88304.000			18.405			-4.601
88404.000			18.405			-4.601
88505.000			18.403			-4.601
88604.000			18.403			-4.601
88704.000			18.404			-4.601
88805.000			18.403			-4.601
88903.000			18.403			-4.601
89005.000			18.403			-4.601
89104.000			18.403			-4.601
89204.000			18.403			-4.601
89305.000			18.402			-4.601
89404.000			18.402			-4.601
89504.000			18.403			-4.601
89604.000			18.402			-4.600
89704.000			18.401			-4.600
89804.000			18.400			-4.600
89905.000			18.401			-4.600
90004.000			18.399			-4.600
90104.000			18.399			-4.600
90205.000			18.399			-4.600
90303.000			18.400			-4.600
90404.000			18.399			-4.600
90505.000			18.397			-4.599
90604.000			18.397			-4.599
90704.000			18.397			-4.599
90805.000			18.397			-4.599
90904.000			18.396			-4.599
91004.000			18.396			-4.599
91105.000			18.396			-4.599
91203.000			18.395			-4.599
91304.000			18.395			-4.599
91405.000			18.394			-4.598
91504.000			18.394			-4.599
91604.000			18.393			-4.598
91705.000			18.393			-4.598
91804.000			18.393			-4.598
91903.000			18.394			-4.598
92005.000			18.393			-4.598
92104.000			18.393			-4.598
92205.000			18.393			-4.598
92304.000			18.392			-4.598
92404.000			18.391			-4.598
92505.000			18.391			-4.598
92603.000			18.391			-4.598
92704.000			18.391			-4.598
92805.000			18.390			-4.598
92904.000			18.391			-4.598
93004.000			18.390			-4.597
93105.000			18.390			-4.597
93204.000			18.390			-4.597
93303.000			18.389			-4.597
93405.000			18.389			-4.597
93504.000			18.389			-4.597
93604.000			18.388			-4.597
93705.000			18.388			-4.597
93804.000			18.387			-4.597
93904.000			18.387			-4.597
94004.000			18.388			-4.597
94104.000			18.388			-4.597
94204.000			18.387			-4.597
94305.000			18.387			-4.597
94404.000			18.386			-4.597
94504.000			18.385			-4.596
94605.000			18.384			-4.596
94704.000			18.384			-4.596
94804.000			18.385			-4.596
94904.000			18.384			-4.596
95004.000			18.383			-4.596
95104.000			18.383			-4.596
95204.000			18.383			-4.596
95304.000			18.383			-4.596
95405.000			18.383			-4.596
95504.000			18.383			-4.596
95603.000			18.382			-4.596
95705.000			18.382			-4.595
95804.000			18.381			-4.595
95904.000			18.382			-4.595
96005.000			18.381			-4.595
96104.000			18.380			-4.595
96204.000			18.379			-4.595
96304.000			18.380			-4.595
96404.000			18.380			-4.595
96504.000			18.379			-4.595
96605.000			18.379			-4.595
96704.000			18.378			-4.595
96804.000			18.377			-4.594
96905.000			18.377			-4.594
97003.000			18.377			-4.594
97104.000			18.376			-4.594
97205.000			18.376			-4.594
97304.000			18.376			-4.594
97404.000			18.376			-4.594
97505.000			18.374			-4.594
97604.000			18.375			-4.594
97704.000			18.375			-4.594
97805.000			18.375			-4.594
97903.000			18.376			-4.594
98004.000			18.374			-4.593
98105.000			18.374			-4.594
98204.000			18.374			-4.593
98304.000			18.373			-4.593
98404.000			18.372			-4.593
98504.000			18.372			-4.593
98603.000			18.371			-4.593
98704.000			18.372			-4.593
98804.000			18.373			-4.593
98905.000			18.373			-4.593
99004.000			18.370			-4.593
99104.000			18.369			-4.592
99205.000			18.370			-4.592
99303.000			18.369			-4.592
99404.000			18.370			-4.593
99504.000			18.370			-4.592
99604.000			18.369			-4.592
99704.000			18.368			-4.592
99805.000			18.368			-4.592
99904.000			18.368			-4.592
100004.000			18.367			-4.592
100105.000			18.367			-4.592
100203.000			18.368			-4.592
100304.000			18.367			-4.592
100405.000			18.367			-4.592
100504.000			18.367			-4.592
100604.000			18.366			-4.592
100705.000			18.366			-4.592
100804.000			18.365			-4.591
100903.000			18.364			-4.591
101005.000			18.364			-4.591
101104.000			18.364			-4.591
101204.000			18.364			-4.591
101305.000			18.364			-4.591
101404.000			18.363			-4.591
101504.000			18.363			-4.591
101603.000			18.362			-4.591
101704.000			18.362			-4.590
101805.000			18.361			-4.590
101904.000			18.362			-4.590
102004.000			18.362			-4.590
102105.000			18.361			-4.590
102204.000			18.361			-4.590
102303.000			18.361			-4.590
102405.000			18.359			-4.590
102504.000			18.360			-4.590
102604.000			18.360			-4.590
102705.000			18.358			-4.590
102804.000			18.359			-4.590
102904.000			18.359			-4.590
103004.000			18.357			-4.589
103104.000			18.357			-4.589
103203.000			18.357			-4.589
103305.000			18.356			-4.589
103404.000			18.357			-4.589
103504.000			18.357			-4.589
103605.000			18.356			-4.589
103704.000			18.355			-4.589
103804.000			18.356			-4.589
103904.000			18.356			-4.589
104004.000			18.355			-4.589
104104.000			18.355			-4.589
104205.000			18.356			-4.589
104304.000			18.356			-4.589
104404.000			18.354			-4.589
104505.000			18.353			-4.588
104603.000			18.354			-4.588
104704.000			18.353			-4.588
104805.000			18.352			-4.588
104904.000			18.353			-4.588
105005.000			18.353			-4.588
105104.000			18.353			-4.588
105204.000			18.352			-4.588
105304.000			18.352			-4.588
105404.000			18.352			-4.588
105504.000			18.351			-4.588
105605.000			18.351			-4.588
105704.000			18.350			-4.588
105804.000			18.352			-4.588
105905.000			18.351			-4.588
106003.000			18.350			-4.588
106104.000			18.351			-4.588
106205.000			18.350			-4.588
106304.000			18.350			-4.588
106404.000			18.351			-4.588
106505.000			18.351			-4.588
106604.000			18.351			-4.588
106703.000			18.349			-4.587
106805.000			18.350			-4.587
106904.000			18.349			-4.587
107004.000			18.348			-4.587
107105.000			18.349			-4.587
107204.000			18.348			-4.587
107304.000			18.349			-4.587
107404.000			18.347			-4.587
107504.000			18.347			-4.587
107604.000			18.346			-4.587
107705.000			18.347			-4.587
107804.000			18.345			-4.586
107904.000			18.344			-4.586
108005.000			18.345			-4.586
108104.000			18.346			-4.586
108205.000			18.343			-4.586
108303.000			18.344			-4.586
108404.000			18.343			-4.586
108505.000			18.343			-4.586
108604.000			18.344			-4.586
108704.000			18.343			-4.586
108805.000			18.342			-4.586
108904.000			18.342			-4.586
109003.000			18.341			-4.585
109105.000			18.341			-4.585
109204.000			18.340			-4.585
109304.000			18.341			-4.585
109405.000			18.341			-4.585
109504.000			18.340			-4.585
109604.000			18.340			-4.585
109704.000			18.339			-4.585
109804.000			18.338			-4.585
109904.000			18.339			-4.585
110005.000			18.339			-4.585
110104.000			18.338			-4.584
110204.000			18.338			-4.584
110305.000			18.338			-4.584
110403.000			18.337			-4.584
110504.000			18.338			-4.584
110605.000			18.337			-4.584
110704.000			18.337			-4.584
110804.000			18.337			-4.584
110905.000			18.336			-4.584
111004.000			18.336			-4.584
111103.000			18.335			-4.584
111205.000			18.335			-4.584
111304.000			18.335			-4.584
111405.000			18.334			-4.584
111504.000			18.334			-4.583
111604.000			18.334			-4.583
111705.000			18.333			-4.583
111804.000			18.333			-4.583
111904.000			18.333			-4.583
112004.000			18.334			-4.584
112104.000			18.333			-4.583
112204.000			18.332			-4.583
112305.000			18.332			-4.583
112404.000			18.332			-4.583
112504.000			18.330			-4.582
112605.000			18.330			-4.582
112703.000			18.329			-4.582
112804.000			18.329			-4.582
112905.000			18.330			-4.582
113004.000			18.330			-4.583
113104.000			18.330			-4.583
113205.000			18.331			-4.583
113304.000			18.328			-4.582
113403.000			18.328			-4.582
113505.000			18.328			-4.582
113604.000			18.328			-4.582
113704.000			18.327			-4.582
113805.000			18.327			-4.582
113904.000			18.327			-4.582
114004.000			18.327			-4.582
114104.000			18.327			-4.582
114204.000			18.326			-4.582
114304.000			18.326			-4.582
114404.000			18.326			-4.582
114504.000			18.326			-4.581
114605.000			18.326			-4.581
114704.000			18.325			-4.581
114803.000			18.325			-4.581
114905.000			18.325			-4.581
115004.000			18.325			-4.581
115104.000			18.325			-4.581
115205.000			18.324			-4.581
115304.000			18.324			-4.581
115404.000			18.323			-4.581
115504.000			18.323			-4.581
115604.000			18.322			-4.581
115704.000			18.323			-4.581
115805.000			18.323			-4.581
115904.000			18.322			-4.580
116004.000			18.322			-4.580
116105.000			18.322			-4.580
116203.000			18.320			-4.580
116304.000			18.320			-4.580
116404.000			18.320			-4.580
116504.000			18.320			-4.580
116604.000			18.320			-4.580
116705.000			18.320			-4.580
116804.000			18.319			-4.580
116904.000			18.319			-4.580
117005.000			18.320			-4.580
117103.000			18.320			-4.580
117204.000			18.319			-4.580
117305.000			18.319			-4.580
117404.000			18.319			-4.580
117504.000			18.318			-4.579
117604.000			18.318			-4.579
117704.000			18.318			-4.580
117803.000			18.318			-4.579
117904.000			18.317			-4.579
118004.000			18.316			-4.579
118105.000			18.316			-4.579
118204.000			18.317			-4.579
118304.000			18.317			-4.579
118405.000			18.316			-4.579
118503.000			18.315			-4.579
118604.000			18.315			-4.579
118705.000			18.315			-4.579
118804.000			18.315			-4.579
118904.000			18.314			-4.579
119005.000			18.314			-4.579
119104.000			18.315			-4.579
119204.000			18.315			-4.579
119305.000			18.314			-4.578
119403.000			18.313			-4.578
119504.000			18.314			-4.578
119605.000			18.312			-4.578
119704.000			18.312			-4.578
119804.000			18.311			-4.578
119905.000			18.311			-4.578
120004.000			18.312			-4.578
120103.000			18.312			-4.578
120205.000			18.312			-4.578
120304.000			18.312			-4.578
120404.000			18.312			-4.578
120505.000			18.311			-4.578
120604.000			18.311			-4.578
120704.000			18.311			-4.578
120803.000			18.311			-4.578
120904.000			18.310			-4.577
121005.000			18.309			-4.577
121104.000			18.309			-4.577
121204.000			18.309			-4.577
121305.000			18.309			-4.577
121404.000			18.308			-4.577
121503.000			18.308			-4.577
121605.000			18.308			-4.577
121704.000			18.307			-4.577
121804.000			18.308			-4.577
121905.000			18.308			-4.577
122004.000			18.307			-4.577
122104.000			18.307			-4.577
122204.000			18.307			-4.577
122304.000			18.306			-4.577
122404.000			18.307			-4.577
122505.000			18.306			-4.576
122604.000			18.305			-4.576
122704.000			18.305			-4.576
122805.000			18.304			-4.576
122903.000			18.304			-4.576
123004.000			18.304			-4.576
123105.000			18.304			-4.576
123204.000			18.303			-4.576
123304.000			18.304			-4.576
123405.000			18.304			-4.576
123504.000			18.304			-4.576
123603.000			18.304			-4.576
123705.000			18.303			-4.576
123804.000			18.303			-4.576
123904.000			18.303			-4.576
124005.000			18.302			-4.576
124104.000			18.302			-4.576
124205.000			18.301			-4.575
124303.000			18.300			-4.575
124404.000			18.301			-4.575
124505.000			18.302			-4.575
124604.000			18.302			-4.575
124704.000			18.302			-4.575
124805.000			18.301			-4.575
124904.000			18.300			-4.575
125003.000			18.301			-4.575
125105.000			18.300			-4.575
125204.000			18.299			-4.575
125304.000			18.299			-4.575
125405.000			18.299			-4.575
125504.000			18.299			-4.575
125604.000			18.299			-4.575
125705.000			18.299			-4.575
125804.000			18.298			-4.575
125903.000			18.297			-4.574
126005.000			18.298			-4.574
126104.000			18.298			-4.574
126204.000			18.297			-4.574
126305.000			18.298			-4.574
126404.000			18.296			-4.574
126504.000			18.296			-4.574
126604.000			18.297			-4.574
126704.000			18.296			-4.574
126804.000			18.296			-4.574
126905.000			18.296			-4.574
127004.000			18.296			-4.574
127104.000			18.296			-4.574
127205.000			18.295			-4.574
127304.000			18.295			-4.574
127405.000			18.295			-4.574
127503.000			18.294			-4.573
127604.000			18.295			-4.574
127705.000			18.294			-4.574
127804.000			18.296			-4.574
127904.000			18.295			-4.574
128005.000			18.292			-4.573
128104.000			18.293			-4.573
128203.000			18.293			-4.573
128305.000			18.292			-4.573
128403.000			18.293			-4.573
128504.000			18.294			-4.574
128605.000			18.294			-4.574
128704.000			18.293			-4.573
128804.000			18.292			-4.573
128905.000			18.292			-4.573
129004.000			18.292			-4.573
129103.000			18.291			-4.573
129205.000			18.292			-4.573
129304.000			18.291			-4.573
129404.000			18.291			-4.573
129505.000			18.292			-4.573
129604.000			18.292			-4.573
129704.000			18.290			-4.573
129804.000			18.290			-4.572
129904.000			18.289			-4.572
130003.000			18.290			-4.572
130105.000			18.288			-4.572
130204.000			18.288			-4.572
130304.000			18.289			-4.572
130405.000			18.288			-4.572
130504.000			18.288			-4.572
130605.000			18.288			-4.572
130703.000			18.286			-4.572
130804.000			18.286			-4.572
130905.000			18.287			-4.572
131004.000			18.287			-4.572
131104.000			18.287			-4.572
131205.000			18.287			-4.572
131304.000			18.285			-4.571
131403.000			18.285			-4.571
131505.000			18.283			-4.571
131604.000			18.284			-4.571
131704.000			18.284			-4.571
131805.000			18.284			-4.571
131904.000			18.284			-4.571
132004.000			18.283			-4.571
132105.000			18.284			-4.571
132204.000			18.284			-4.571
132303.000			18.282			-4.571
132405.000			18.282			-4.571
132504.000			18.282			-4.571
132604.000			18.282			-4.571
132705.000			18.282			-4.570
132804.000			18.281			-4.570
132904.000			18.281			-4.570
133005.000			18.281			-4.570
133104.000			18.281			-4.570
133203.000			18.282			-4.570
133305.000			18.281			-4.570
133404.000			18.280			-4.570
133504.000			18.280			-4.570
133605.000			18.280			-4.570
133704.000			18.280			-4.570
133805.000			18.280			-4.570
133904.000			18.280			-4.570
134004.000			18.279			-4.570
134104.000			18.278			-4.570
134204.000			18.278			-4.569
134304.000			18.278			-4.569
134405.000			18.277			-4.569
134504.000			18.276			-4.569
134604.000			18.277			-4.569
134705.000			18.277			-4.569
134804.000			18.277			-4.569
134904.000			18.277			-4.569
135004.000			18.276			-4.569
135104.000			18.276			-4.569
135204.000			18.276			-4.569
135305.000			18.275			-4.569
135404.000			18.275			-4.569
135504.000			18.275			-4.569
135605.000			18.275			-4.569
135704.000			18.274			-4.569
135804.000			18.273			-4.568
135904.000			18.272			-4.568
136004.000			18.272			-4.568
136104.000			18.272			-4.568
136205.000			18.272			-4.568
136304.000			18.272			-4.568
136404.000			18.272			-4.568
136505.000			18.273			-4.568
136604.000			18.273			-4.568
136704.000			18.273			-4.568
136803.000			18.273			-4.568
136904.000			18.274			-4.568
137005.000			18.273			-4.568
137104.000			18.273			-4.568
137204.000			18.273			-4.568
137305.000			18.273			-4.568
137404.000			18.273			-4.568
137504.000			18.273			-4.568
137605.000			18.274			-4.568
137703.000			18.273			-4.568
137804.000			18.272			-4.568
137905.000			18.271			-4.568
138004.000			18.272			-4.568
138104.000			18.273			-4.568
138205.000			18.274			-4.568
138304.000			18.273			-4.568
138404.000			18.272			-4.568
138505.000			18.271			-4.568
138603.000			18.271			-4.568
138704.000			18.272			-4.568
138805.000			18.272			-4.568
138904.000			18.272			-4.568
139004.000			18.271			-4.568
139105.000			18.271			-4.568
139204.000			18.271			-4.568
139304.000			18.271			-4.568
139405.000			18.271			-4.568
139503.000			18.270			-4.568
139604.000			18.270			-4.568
139705.000			18.270			-4.567
139804.000			18.270			-4.568
139904.000			18.270			-4.568
140004.000			18.270			-4.567
140104.000			18.270			-4.567
140205.000			18.269			-4.567
140304.000			18.269			-4.567
140403.000			18.269			-4.567
140505.000			18.270			-4.567
140604.000			18.270			-4.567
140704.000			18.270			-4.567
140805.000			18.269			-4.567
140904.000			18.269			-4.567
141004.000			18.269			-4.567
141105.000			18.269			-4.567
141204.000			18.269			-4.567
141303.000			18.268			-4.567
141405.000			18.269			-4.567
141503.000			18.269			-4.567
141604.000			18.268			-4.567
141705.000			18.268			-4.567
141804.000			18.268			-4.567
141904.000			18.268			-4.567
142005.000			18.267			-4.567
142104.000			18.267			-4.567
142204.000			18.267			-4.567
142305.000			18.266			-4.566
142403.000			18.267			-4.567
142504.000			18.266			-4.567
142605.000			18.265			-4.566
142704.000			18.266			-4.566
142804.000			18.266			-4.566
142905.000			18.265			-4.566
143004.000			18.265			-4.566
143104.000			18.263			-4.566
143205.000			18.263			-4.566
143303.000			18.264			-4.566
143405.000			18.264			-4.566
143504.000			18.263			-4.566
143604.000			18.262			-4.566
143705.000			18.263			-4.566
143804.000			18.264			-4.566
143904.000			18.262			-4.566
144005.000			18.261			-4.565
144104.000			18.262			-4.565
144203.000			18.262			-4.565
144305.000			18.262			-4.565
144404.000			18.261			-4.565
144504.000			18.262			-4.566
144605.000			18.261			-4.565
144704.000			18.262			-4.565
144804.000			18.261			-4.565
144904.000			18.260			-4.565
145004.000			18.261			-4.565
145103.000			18.260			-4.565
145205.000			18.259			-4.565
145304.000			18.260			-4.565
145404.000			18.260			-4.565
145505.000			18.259			-4.565
145604.000			18.258			-4.564
145704.000			18.258			-4.565
145804.000			18.258			-4.564
145904.000			18.257			-4.564
146003.000			18.257			-4.564
146105.000			18.257			-4.564
146204.000			18.256			-4.564
146304.000			18.257			-4.564
146405.000			18.257			-4.564
146504.000			18.256			-4.564
146605.000			18.256			-4.564
146704.000			18.256			-4.564
146804.000			18.256			-4.564
146904.000			18.256			-4.564
147004.000			18.256			-4.564
147104.000			18.255			-4.564
147205.000			18.255			-4.564
147304.000			18.255			-4.564
147404.000			18.253			-4.563
147505.000			18.254			-4.564
147604.000			18.254			-4.564
147704.000			18.254			-4.564
147804.000			18.253			-4.563
147904.000			18.253			-4.563
148004.000			18.253			-4.563
148105.000			18.252			-4.563
148204.000			18.251			-4.563
148304.000			18.251			-4.563
148405.000			18.251			-4.563
148504.000			18.252			-4.563
148604.000			18.251			-4.563
148704.000			18.250			-4.563
148804.000			18.250			-4.563
148904.000			18.249			-4.562
149005.000			18.249			-4.562
149104.000			18.249			-4.562
149204.000			18.249			-4.562
149305.000			18.248			-4.562
149404.000			18.249			-4.562
149504.000			18.248			-4.562
149603.000			18.248			-4.562
149704.000			18.247			-4.562
149805.000			18.247			-4.562
149904.000			18.248			-4.562
150004.000			18.247			-4.562
150105.000			18.247			-4.562
150204.000			18.246			-4.562
150304.000			18.247			-4.562
150405.000			18.247			-4.562
150503.000			18.247			-4.562
150604.000			18.246			-4.562
150705.000			18.247			-4.562
150804.000			18.246			-4.562
150904.000			18.246			-4.562
151005.000			18.247			-4.562
151104.000			18.246			-4.562
151204.000			18.246			-4.561
151305.000			18.246			-4.561
151403.000			18.246			-4.561
151504.000			18.246			-4.562
151605.000			18.246			-4.561
151704.000			18.246			-4.561
151804.000			18.245			-4.561
151905.000			18.247			-4.562
152004.000			18.246			-4.562
152104.000			18.246			-4.561
152205.000			18.246			-4.562
152303.000			18.245			-4.561
152404.000			18.244			-4.561
152505.000			18.245			-4.561
152604.000			18.244			-4.561
152704.000			18.244			-4.561
152804.000			18.244			-4.561
152904.000			18.245			-4.561
153005.000			18.245			-4.561
153104.000			18.244			-4.561
153203.000			18.243			-4.561
153305.000			18.243			-4.561
153404.000			18.243			-4.561
153504.000			18.243			-4.561
153605.000			18.242			-4.560
153704.000			18.242			-4.560
153804.000			18.242			-4.560
153905.000			18.241			-4.560
154004.000			18.240			-4.560
154103.000			18.240			-4.560
154205.000			18.241			-4.560
154304.000			18.241			-4.560
154404.000			18.240			-4.560
154505.000			18.239			-4.560
154604.000			18.239			-4.560
154704.000			18.238			-4.560
154804.000			18.238			-4.560
154904.000			18.239			-4.560
155003.000			18.239			-4.560
155105.000			18.237			-4.559
155204.000			18.236			-4.559
155304.000			18.236			-4.559
155405.000			18.235			-4.559
155504.000			18.237			-4.559
155604.000			18.235			-4.559
155704.000			18.234			-4.559
155804.000			18.235			-4.559
155903.000			18.235			-4.559
156005.000			18.234			-4.558
156104.000			18.234			-4.558
156205.000			18.233			-4.558
156304.000			18.233			-4.558
156404.000			18.233			-4.558
156505.000			18.231			-4.558
156603.000			18.231			-4.558
156704.000			18.232			-4.558
156804.000			18.231			-4.558
156904.000			18.231			-4.558
157004.000			18.231			-4.558
157105.000			18.230			-4.558
157204.000			18.229			-4.557
157304.000			18.230			-4.557
157405.000			18.230			-4.558
157503.000			18.230			-4.558
157604.000			18.230			-4.558
157705.000			18.229			-4.557
157804.000			18.228			-4.557
157904.000			18.229			-4.557
158005.000			18.229			-4.557
158104.000			18.229			-4.557
158204.000			18.229			-4.557
158305.000			18.228			-4.557
158403.000			18.230			-4.557
158504.000			18.229			-4.557
158605.000			18.228			-4.557
158704.000			18.228			-4.557
158804.000			18.228			-4.557
158905.000			18.229			-4.557
159004.000			18.229			-4.557
159104.000			18.228			-4.557
159205.000			18.228			-4.557
159303.000			18.229			-4.557
159405.000			18.229			-4.557
159503.000			18.228			-4.557
159604.000			18.227			-4.557
159705.000			18.227			-4.557
159804.000			18.228			-4.557
159904.000			18.228			-4.557
160005.000			18.227			-4.557
160104.000			18.227			-4.557
160204.000			18.227			-4.557
160305.000			18.227			-4.557
160403.000			18.226			-4.557
160504.000			18.227			-4.557
160605.000			18.227			-4.557
160704.000			18.226			-4.557
160804.000			18.227			-4.557
160905.000			18.227			-4.557
161004.000			18.225			-4.556
161104.000			18.226			-4.556
161205.000			18.226			-4.557
161303.000			18.226			-4.556
161404.000			18.226			-4.556
161505.000			18.226			-4.556
161604.000			18.226			-4.556
161704.000			18.226			-4.556
161805.000			18.224			-4.556
161904.000			18.225			-4.556
162003.000			18.224			-4.556
162105.000			18.224			-4.556
162203.000			18.224			-4.556
162304.000			18.224			-4.556
162405.000			18.225			-4.556
162504.000			18.224			-4.556
162605.000			18.224			-4.556
162704.000			18.223			-4.556
162804.000			18.222			-4.555
162904.000			18.223			-4.556
163004.000			18.223			-4.556
163103.000			18.223			-4.556
163205.000			18.223			-4.556
163304.000			18.223			-4.556
163404.000			18.222			-4.555
163505.000			18.222			-4.555
163604.000			18.223			-4.556
163704.000			18.223			-4.556
163804.000			18.222			-4.555
163904.000			18.221			-4.555
164003.000			18.222			-4.555
164105.000			18.221			-4.555
164204.000			18.221			-4.555
164304.000			18.220			-4.555
164405.000			18.220			-4.555
164504.000			18.220			-4.555
164604.000			18.219			-4.555
164704.000			18.219			-4.555
164804.000			18.218			-4.555
164904.000			18.218			-4.555
165005.000			18.219			-4.555
165104.000			18.219			-4.555
165204.000			18.218			-4.555
165305.000			18.217			-4.554
165404.000			18.217			-4.554
165504.000			18.218			-4.554
165603.000			18.217			-4.554
165704.000			18.216			-4.554
165805.000			18.217			-4.554
165904.000			18.215			-4.554
166004.000			18.215			-4.554
166105.000			18.216			-4.554
166204.000			18.215			-4.554
166304.000			18.214			-4.553
166405.000			18.214			-4.554
166503.000			18.213			-4.553
166604.000			18.213			-4.553
166705.000			18.214			-4.553
166804.000			18.212			-4.553
166904.000			18.212			-4.553
167005.000			18.212			-4.553
167104.000			18.210			-4.553
167204.000			18.210			-4.553
167305.000			18.209			-4.552
167403.000			18.210			-4.552
167504.000			18.210			-4.553
167605.000			18.210			-4.552
167704.000			18.209			-4.552
167804.000			18.209			-4.552
167905.000			18.209			-4.552
168004.000			18.209			-4.552
168104.000			18.209			-4.552
168205.000			18.209			-4.552
168303.000			18.208			-4.552
168404.000			18.208			-4.552
168505.000			18.209			-4.552
168604.000			18.207			-4.552
168704.000			18.207			-4.552
168804.000			18.206			-4.551
168904.000			18.206			-4.552
169005.000			18.207			-4.552
169104.000			18.207			-4.552
169203.000			18.207			-4.552
169305.000			18.206			-4.551
169404.000			18.206			-4.551
169504.000			18.206			-4.551
169605.000			18.205			-4.551
169704.000			18.206			-4.551
169804.000			18.205			-4.551
169905.000			18.204			-4.551
170004.000			18.205			-4.551
170103.000			18.204			-4.551
170205.000			18.203			-4.551
170304.000			18.203			-4.551
170404.000			18.203			-4.551
170505.000			18.204			-4.551
170604.000			18.204			-4.551
170704.000			18.204			-4.551
170805.000			18.204			-4.551
170904.000			18.203			-4.551
171003.000			18.203			-4.551
171105.000			18.204			-4.551
171204.000			18.204			-4.551
171304.000			18.203			-4.551
171405.000			18.202			-4.551
171504.000			18.204			-4.551
171604.000			18.203			-4.551
171704.000			18.203			-4.551
171804.000			18.203			-4.551
171903.000			18.203			-4.551
172005.000			18.203			-4.551
172104.000			18.203			-4.551
172205.000			18.202			-4.551
172304.000			18.202			-4.551
172404.000			18.203			-4.551
172505.000			18.202			-4.550
172603.000			18.202			-4.550
172704.000			18.202			-4.551
172805.000			18.203			-4.551
172904.000			18.202			-4.550
173004.000			18.202			-4.551
173105.000			18.202			-4.551
173204.000			18.202			-4.551
173304.000			18.203			-4.551
173405.000			18.202			-4.551
173503.000			18.201			-4.550
173604.000			18.201			-4.550
173705.000			18.201			-4.550
173804.000			18.200			-4.550
173904.000			18.200			-4.550
174005.000			18.200			-4.550
174104.000			18.200			-4.550
174204.000			18.201			-4.550
174305.000			18.200			-4.550
174403.000			18.199			-4.550
174504.000			18.198			-4.549
174605.000			18.197			-4.549
174704.000			18.197			-4.549
174804.000			18.197			-4.549
174905.000			18.198			-4.550
175004.000			18.198			-4.550
175104.000			18.197			-4.549
175205.000			18.197			-4.549
175303.000			18.196			-4.549
175405.000			18.196			-4.549
175504.000			18.196			-4.549
175604.000			18.195			-4.549
175705.000			18.196			-4.549
175804.000			18.195			-4.549
175904.000			18.195			-4.549
176005.000			18.196			-4.549
176104.000			18.195			-4.549
176203.000			18.194			-4.549
176305.000			18.196			-4.549
176403.000			18.195			-4.549
176504.000			18.194			-4.549
176605.000			18.195			-4.549
176704.000			18.194			-4.549
176804.000			18.194			-4.549
176905.000			18.195			-4.549
177004.000			18.195			-4.549
177104.000			18.195			-4.549
177205.000			18.194			-4.549
177303.000			18.195			-4.549
177404.000			18.195			-4.549
177505.000			18.194			-4.549
177604.000			18.194			-4.548
177704.000			18.193			-4.548
177805.000			18.194			-4.548
177904.000			18.193			-4.548
178004.000			18.193			-4.548
178105.000			18.193			-4.548
178203.000			18.193			-4.548
178304.000			18.192			-4.548
178403.000			18.192			-4.548
178504.000			18.193			-4.548
178605.000			18.193			-4.548
178704.000			18.193			-4.548
178804.000			18.192			-4.548
178905.000			18.193			-4.548
179004.000			18.192			-4.548
179104.000			18.192			-4.548
179205.000			18.192			-4.548
179303.000			18.192			-4.548
179404.000			18.192			-4.548
179505.000			18.191			-4.548
179604.000			18.191			-4.548
179704.000			18.190			-4.548
179805.000			18.189			-4.547
179904.000			18.191			-4.548
180004.000			18.189			-4.547
180105.000			18.187			-4.547
180203.000			18.188			-4.547
180304.000			18.188			-4.547
180405.000			18.187			-4.547
180504.000			18.187			-4.547
180604.000			18.187			-4.547
180705.000			18.187			-4.547
180804.000			18.186			-4.547
180904.000			18.186			-4.547
181005.000			18.187			-4.547
181103.000			18.186			-4.546
181204.000			18.186			-4.546
181304.000			18.187			-4.547
181404.000			18.186			-4.547
181504.000			18.185			-4.546
181604.000			18.185			-4.546
181704.000			18.184			-4.546
181805.000			18.184			-4.546
181904.000			18.184			-4.546
182004.000			18.184			-4.546
182105.000			18.184			-4.546
182203.000			18.183			-4.546
182304.000			18.182			-4.545
182405.000			18.182			-4.545
182504.000			18.181			-4.545
182604.000			18.182			-4.546
182705.000			18.182			-4.545
182804.000			18.181			-4.545
182904.000			18.182			-4.545
183005.000			18.181			-4.545
183103.000			18.180			-4.545
183204.000			18.180			-4.545
183305.000			18.180			-4.545
183404.000			18.180			-4.545
183504.000			18.180			-4.545
183605.000			18.180			-4.545
183704.000			18.180			-4.545
183804.000			18.179			-4.545
183905.000			18.180			-4.545
184003.000			18.180			-4.545
184104.000			18.179			-4.545
184205.000			18.179			-4.545
184304.000			18.179			-4.545
184404.000			18.179			-4.545
184505.000			18.178			-4.545
184604.000			18.178			-4.544
184704.000			18.177			-4.544
184805.000			18.178			-4.544
184903.000			18.177			-4.544
185005.000			18.178			-4.545
185104.000			18.178			-4.544
185204.000			18.177			-4.544
185305.000			18.176			-4.544
185404.000			18.176			-4.544
185504.000			18.177			-4.544
185605.000			18.177			-4.544
185704.000			18.177			-4.544
185803.000			18.177			-4.544
185905.000			18.176			-4.544
186003.000			18.176			-4.544
186104.000			18.175			-4.544
186205.000			18.175			-4.544
186304.000			18.175			-4.544
186404.000			18.175			-4.544
186505.000			18.175			-4.544
186604.000			18.173			-4.543
186704.000			18.173			-4.543
186805.000			18.174			-4.544
186903.000			18.175			-4.544
187004.000			18.175			-4.544
187105.000			18.174			-4.544
187204.000			18.173			-4.543
187304.000			18.173			-4.543
187405.000			18.173			-4.543
187504.000			18.173			-4.543
187604.000			18.173			-4.543
187705.000			18.173			-4.543
187803.000			18.173			-4.543
187904.000			18.172			-4.543
188003.000			18.171			-4.543
188104.000			18.171			-4.543
188205.000			18.172			-4.543
188304.000			18.171			-4.543
188404.000			18.170			-4.543
188505.000			18.171			-4.543
188604.000			18.172			-4.543
188703.000			18.171			-4.543
188805.000			18.170			-4.543
188903.000			18.172			-4.543
189004.000			18.171			-4.543
189105.000			18.170			-4.543
189204.000			18.171			-4.543
189304.000			18.170			-4.543
189405.000			18.169			-4.542
189504.000			18.169			-4.542
189604.000			18.169			-4.542
189705.000			18.170			-4.542
189803.000			18.170			-4.542
189904.000			18.170			-4.542
190005.000			18.170			-4.542
190104.000			18.168			-4.542
190204.000			18.168			-4.542
190305.000			18.169			-4.542
190404.000			18.168			-4.542
190504.000			18.169			-4.542
190605.000			18.167			-4.542
190703.000			18.166			-4.542
190804.000			18.167			-4.542
190905.000			18.167			-4.542
191004.000			18.167			-4.542
191104.000			18.168			-4.542
191204.000			18.167			-4.542
191304.000			18.166			-4.542
191405.000			18.166			-4.542
191504.000			18.166			-4.542
191603.000			18.166			-4.542
191705.000			18.166			-4.542
191803.000			18.166			-4.542
191904.000			18.166			-4.541
192005.000			18.166			-4.541
192104.000			18.165			-4.541
192204.000			18.164			-4.541
192305.000			18.165			-4.541
192404.000			18.165			-4.541
192503.000			18.164			-4.541
192605.000			18.162			-4.541
192703.000			18.163			-4.541
192804.000			18.164			-4.541
192905.000			18.164			-4.541
193004.000			18.164			-4.541
193104.000			18.163			-4.541
193205.000			18.164			-4.541
193304.000			18.163			-4.541
193403.000			18.162			-4.541
193505.000			18.162			-4.541
193603.000			18.162			-4.541
193704.000			18.162			-4.541
193805.000			18.162			-4.541
193904.000			18.162			-4.541
194004.000			18.162			-4.541
194105.000			18.162			-4.540
194204.000			18.162			-4.541
194304.000			18.162			-4.541
194405.000			18.161			-4.540
194503.000			18.161			-4.540
194605.000			18.162			-4.540
194704.000			18.161			-4.540
194804.000			18.160			-4.540
194905.000			18.159			-4.540
195004.000			18.160			-4.540
195104.000			18.160			-4.540
195205.000			18.159			-4.540
195304.000			18.159			-4.540
195403.000			18.159			-4.540
195505.000			18.161			-4.540
195604.000			18.159			-4.540
195704.000			18.160			-4.540
195805.000			18.160			-4.540
195904.000			18.160			-4.540
196004.000			18.160			-4.540
196105.000			18.160			-4.540
196204.000			18.159			-4.540
196303.000			18.159			-4.540
196405.000			18.159			-4.540
196504.000			18.159			-4.540
196604.000			18.159			-4.540
196705.000			18.158			-4.540
196804.000			18.158			-4.539
196904.000			18.157			-4.539
197005.000			18.159			-4.540
197104.000			18.158			-4.539
197203.000			18.158			-4.540
197305.000			18.158			-4.539
197403.000			18.158			-4.539
197504.000			18.158			-4.540
197605.000			18.157			-4.539
197704.000			18.158			-4.539
197805.000			18.157			-4.539
197904.000			18.157			-4.539
198004.000			18.157			-4.539
198105.000			18.156			-4.539
198204.000			18.155			-4.539
198303.000			18.156			-4.539
198405.000			18.156			-4.539
198504.000			18.155			-4.539
198604.000			18.155			-4.539
198705.000			18.156			-4.539
198804.000			18.156			-4.539
198904.000			18.156			-4.539
199005.000			18.156			-4.539
199104.000			18.155			-4.539
199203.000			18.155			-4.539
199305.000			18.154			-4.539
199403.000			18.155			-4.539
199504.000			18.154			-4.538
199605.000			18.154			-4.539
199704.000			18.154			-4.539
199804.000			18.155			-4.539
199905.000			18.154			-4.539
200004.000			18.154			-4.538
200104.000			18.154			-4.538
200205.000			18.153			-4.538
200303.000			18.153			-4.538
200404.000			18.153			-4.538
200505.000			18.153			-4.538
200604.000			18.152			-4.538
200704.000			18.152			-4.538
200804.000			18.152			-4.538
200904.000			18.152			-4.538
201003.000			18.152			-4.538
201104.000			18.152			-4.538
201203.000			18.152			-4.538
201305.000			18.151			-4.538
201404.000			18.150			-4.538
201504.000			18.150			-4.538
201605.000			18.151			-4.538
201704.000			18.151			-4.538
201804.000			18.151			-4.538
201904.000			18.151			-4.538
202004.000			18.151			-4.538
202104.000			18.150			-4.537
202205.000			18.150			-4.537
202304.000			18.150			-4.537
202404.000			18.150			-4.538
202505.000			18.150			-4.538
202604.000			18.149			-4.537
202704.000			18.149			-4.537
202804.000			18.149			-4.537
202904.000			18.150			-4.537
203004.000			18.150			-4.537
203105.000			18.150			-4.537
203204.000			18.150			-4.537
203304.000			18.149			-4.537
203405.000			18.148			-4.537
203504.000			18.147			-4.537
203604.000			18.146			-4.537
203704.000			18.148			-4.537
203804.000			18.149			-4.537
203904.000			18.148			-4.537
204004.000			18.147			-4.537
204104.000			18.146			-4.537
204205.000			18.147			-4.537
204304.000			18.147			-4.537
204404.000			18.147			-4.537
204505.000			18.146			-4.537
204603.000			18.146			-4.536
204704.000			18.145			-4.536
204805.000			18.146			-4.537
204904.000			18.146			-4.537
205004.000			18.146			-4.536
205105.000			18.145			-4.536
205204.000			18.145			-4.536
205304.000			18.146			-4.537
205405.000			18.145			-4.536
205503.000			18.145			-4.536
205604.000			18.145			-4.536
205705.000			18.144			-4.536
205804.000			18.144			-4.536
205904.000			18.144			-4.536
206005.000			18.144			-4.536
206104.000			18.144			-4.536
206203.000			18.143			-4.536
206305.000			18.143			-4.536
206403.000			18.143			-4.536
206504.000			18.143			-4.536
206605.000			18.144			-4.536
206704.000			18.143			-4.536
206804.000			18.143			-4.536
206905.000			18.142			-4.536
207004.000			18.142			-4.535
207103.000			18.143			-4.536
207205.000			18.143			-4.536
207304.000			18.142			-4.535
207405.000			18.142			-4.536
207504.000			18.143			-4.536
207604.000			18.141			-4.535
207705.000			18.141			-4.535
207804.000			18.141			-4.535
207904.000			18.141			-4.535
208004.000			18.142			-4.535
208104.000			18.141			-4.535
208204.000			18.140			-4.535
208305.000			18.140			-4.535
208404.000			18.140			-4.535
208504.000			18.140			-4.535
208605.000			18.139			-4.535
208704.000			18.139			-4.535
208804.000			18.140			-4.535
208904.000			18.140			-4.535
209004.000			18.139			-4.535
209104.000			18.139			-4.535
209205.000			18.139			-4.535
209304.000			18.139			-4.535
209404.000			18.138			-4.535
209505.000			18.138			-4.535
209604.000			18.139			-4.535
209704.000			18.138			-4.534
209804.000			18.137			-4.534
209904.000			18.138			-4.534
210003.000			18.138			-4.534
210105.000			18.137			-4.534
210204.000			18.137			-4.534
210304.000			18.138			-4.534
210405.000			18.138			-4.535
210504.000			18.138			-4.534
210605.000			18.137			-4.534
210703.000			18.137			-4.534
210804.000			18.137			-4.534
210905.000			18.137			-4.534
211004.000			18.138			-4.534
211104.000			18.137			-4.534
211205.000			18.136			-4.534
211304.000			18.135			-4.534
211404.000			18.134			-4.534
211505.000			18.135			-4.534
211603.000			18.135			-4.534
211704.000			18.135			-4.534
211805.000			18.135			-4.534
211904.000			18.135			-4.534
212004.000			18.135			-4.534
212105.000			18.135			-4.534
212204.000			18.135			-4.534
212303.000			18.135			-4.534
212405.000			18.135			-4.534
212503.000			18.134			-4.533
212604.000			18.133			-4.533
212705.000			18.133			-4.533
212804.000			18.133			-4.533
212904.000			18.133			-4.533
213005.000			18.133			-4.533
213104.000			18.133			-4.533
213203.000			18.133			-4.533
213305.000			18.132			-4.533
213404.000			18.134			-4.533
213504.000			18.134			-4.534
213605.000			18.133			-4.533
213704.000			18.131			-4.533
213805.000			18.132			-4.533
213904.000			18.132			-4.533
214004.000			18.133			-4.533
214104.000			18.133			-4.533
214204.000			18.133			-4.533
214304.000			18.132			-4.533
214405.000			18.131			-4.533
214504.000			18.131			-4.533
214604.000			18.131			-4.533
214705.000			18.131			-4.533
214803.000			18.132			-4.533
214904.000			18.131			-4.533
215004.000			18.131			-4.533
215104.000			18.131			-4.533
215204.000			18.130			-4.533
215305.000			18.130			-4.532
215404.000			18.129			-4.532
215504.000			18.130			-4.532
215605.000			18.130			-4.532
215703.000			18.129			-4.532
215804.000			18.129			-4.532
215904.000			18.128			-4.532
216004.000			18.129			-4.532
216104.000			18.128			-4.532
216205.000			18.128			-4.532
216304.000			18.128			-4.532
216404.000			18.128			-4.532
216505.000			18.128			-4.532
216603.000			18.128			-4.532
216704.000			18.127			-4.532
216805.000			18.127			-4.532
216904.000			18.128			-4.532
217005.000			18.127			-4.532
217104.000			18.127			-4.532
217204.000			18.126			-4.532
217305.000			18.126			-4.532
217404.000			18.127			-4.532
217503.000			18.126			-4.532
217605.000			18.126			-4.532
217704.000			18.126			-4.532
217804.000			18.127			-4.532
217905.000			18.126			-4.532
218004.000			18.125			-4.531
218104.000			18.125			-4.531
218205.000			18.125			-4.531
218304.000			18.125			-4.531
218403.000			18.125			-4.531
218505.000			18.125			-4.531
218604.000			18.126			-4.531
218704.000			18.125			-4.531
218805.000			18.124			-4.531
218904.000			18.123			-4.531
219004.000			18.124			-4.531
219105.000			18.125			-4.531
219204.000			18.125			-4.531
219303.000			18.124			-4.531
219405.000			18.123			-4.531
219504.000			18.123			-4.531
219604.000			18.123			-4.531
219705.000			18.123			-4.531
219804.000			18.123			-4.531
219904.000			18.121			-4.530
220004.000			18.121			-4.530
220104.000			18.121			-4.530
220203.000			18.121			-4.530
220304.000			18.122			-4.531
220404.000			18.122			-4.531
220505.000			18.121			-4.530
220604.000			18.121			-4.530
220704.000			18.121			-4.530
220805.000			18.122			-4.531
220903.000			18.122			-4.530
221004.000			18.121			-4.530
221105.000			18.120			-4.530
221204.000			18.119			-4.530
221304.000			18.119			-4.530
221405.000			18.120			-4.530
221504.000			18.120			-4.530
221603.000			18.119			-4.530
221705.000			18.120			-4.530
221804.000			18.119			-4.530
221904.000			18.119			-4.530
222005.000			18.119			-4.530
222104.000			18.118			-4.530
222204.000			18.117			-4.529
222305.000			18.118			-4.529
222404.000			18.119			-4.530
222503.000			18.118			-4.529
222605.000			18.118			-4.529
222704.000			18.118			-4.529
222804.000			18.116			-4.529
222905.000			18.117			-4.529
223004.000			18.118			-4.529
223104.000			18.117			-4.529
223204.000			18.118			-4.530
223304.000			18.118			-4.530
223403.000			18.117			-4.529
223504.000			18.117			-4.529
223604.000			18.118			-4.529
223705.000			18.117			-4.529
223804.000			18.118			-4.530
223904.000			18.116			-4.529
224005.000			18.116			-4.529
224103.000			18.117			-4.529
224204.000			18.116			-4.529
224304.000			18.115			-4.529
224404.000			18.116			-4.529
224504.000			18.116			-4.529
224605.000			18.116			-4.529
224704.000			18.115			-4.529
224804.000			18.114			-4.529
224905.000			18.114			-4.529
225003.000			18.115			-4.529
225104.000			18.114			-4.529
225205.000			18.115			-4.529
225304.000			18.116			-4.529
225404.000			18.114			-4.529
225505.000			18.114			-4.529
225604.000			18.115			-4.529
225704.000			18.115			-4.529
225805.000			18.115			-4.529
225903.000			18.115			-4.529
226004.000			18.114			-4.529
226105.000			18.114			-4.528
226204.000			18.114			-4.528
226304.000			18.113			-4.528
226404.000			18.113			-4.528
226504.000			18.113			-4.528
226603.000			18.113			-4.528
226704.000			18.113			-4.528
226803.000			18.113			-4.528
226905.000			18.112			-4.528
227004.000			18.111			-4.528
227104.000			18.111			-4.528
227205.000			18.113			-4.528
227304.000			18.112			-4.528
227404.000			18.112			-4.528
227504.000			18.113			-4.528
227604.000			18.112			-4.528
227704.000			18.112			-4.528
227805.000			18.113			-4.528
227904.000			18.112			-4.528
228004.000			18.112			-4.528
228105.000			18.112			-4.528
228204.000			18.111			-4.528
228304.000			18.111			-4.528
228404.000			18.110			-4.528
228504.000			18.109			-4.527
228604.000			18.109			-4.527
228705.000			18.110			-4.528
228804.000			18.110			-4.528
228904.000			18.110			-4.528
229005.000			18.109			-4.527
229104.000			18.109			-4.527
229204.000			18.108			-4.527
229304.000			18.109			-4.527
229404.000			18.109			-4.527
229504.000			18.108			-4.527
229604.000			18.108			-4.527
229704.000			18.109			-4.527
229805.000			18.110			-4.527
229904.000			18.109			-4.527
230004.000			18.107			-4.527
230105.000			18.107			-4.527
230203.000			18.106			-4.527
230304.000			18.106			-4.526
230405.000			18.107			-4.527
230504.000			18.108			-4.527
230604.000			18.107			-4.527
230705.000			18.107			-4.527
230804.000			18.107			-4.527
230903.000			18.107			-4.527
231005.000			18.107			-4.527
231103.000			18.107			-4.527
231204.000			18.107			-4.527
231305.000			18.107			-4.527
231404.000			18.106			-4.527
231504.000			18.107			-4.527
231605.000			18.107			-4.527
231704.000			18.106			-4.526
231803.000			18.105			-4.526
231905.000			18.105			-4.526
232004.000			18.104			-4.526
232104.000			18.105			-4.526
232205.000			18.104			-4.526
232304.000			18.104			-4.526
232404.000			18.105			-4.526
232505.000			18.105			-4.526
232604.000			18.104			-4.526
232703.000			18.104			-4.526
232805.000			18.105			-4.526
232904.000			18.104			-4.526
233005.000			18.103			-4.526
233104.000			18.104			-4.526
233204.000			18.103			-4.526
233305.000			18.103			-4.526
233403.000			18.103			-4.526
233504.000			18.104			-4.526
233604.000			18.105			-4.526
233704.000			18.104			-4.526
233804.000			18.103			-4.526
233905.000			18.101			-4.525
234004.000			18.101			-4.525
234104.000			18.101			-4.525
234205.000			18.102			-4.526
234303.000			18.102			-4.526
234404.000			18.103			-4.526
234505.000			18.102			-4.526
234604.000			18.102			-4.525
234704.000			18.102			-4.525
234805.000			18.101			-4.525
234904.000			18.103			-4.526
235004.000			18.101			-4.525
235105.000			18.101			-4.525
235203.000			18.101			-4.525
235304.000			18.100			-4.525
235405.000			18.100			-4.525
235504.000			18.101			-4.525
235604.000			18.100			-4.525
235705.000			18.100			-4.525
235804.000			18.100			-4.525
235903.000			18.101			-4.525
236005.000			18.101			-4.525
236103.000			18.100			-4.525
236205.000			18.100			-4.525
236304.000			18.100			-4.525
236404.000			18.100			-4.525
236505.000			18.099			-4.525
236604.000			18.099			-4.525
236704.000			18.100			-4.525
236804.000			18.099			-4.525
236904.000			18.098			-4.525
237003.000			18.099			-4.525
237105.000			18.098			-4.525
237204.000			18.098			-4.525
237304.000			18.097			-4.524
237405.000			18.097			-4.524
237504.000			18.098			-4.525
237604.000			18.098			-4.525
237705.000			18.097			-4.524
237804.000			18.097			-4.524
237903.000			18.097			-4.524
238005.000			18.097			-4.524
238104.000			18.097			-4.524
238204.000			18.098			-4.524
238305.000			18.097			-4.524
238404.000			18.096			-4.524
238504.000			18.095			-4.524
238605.000			18.095			-4.524
238704.000			18.095			-4.524
238803.000			18.095			-4.524
238905.000			18.095			-4.524
239004.000			18.096			-4.524
239104.000			18.096			-4.524
239205.000			18.094			-4.524
239304.000			18.095			-4.524
239405.000			18.095			-4.524
239504.000			18.095			-4.524
239604.000			18.094			-4.523
239704.000			18.093			-4.523
239804.000			18.093			-4.523
239903.000			18.093			-4.523
240005.000			18.094			-4.523
240104.000			18.093			-4.523
240204.000			18.093			-4.523
240305.000			18.094			-4.523
240404.000			18.094			-4.524
240504.000			18.094			-4.524
240604.000			18.094			-4.523
240704.000			18.094			-4.523
240803.000			18.093			-4.523
240905.000			18.094			-4.524
241004.000			18.094			-4.523
241104.000			18.093			-4.523
241205.000			18.093			-4.523
241304.000			18.093			-4.523
241404.000			18.093			-4.523
241504.000			18.092			-4.523
241604.000			18.092			-4.523
241703.000			18.092			-4.523
241805.000			18.093			-4.523
241904.000			18.092			-4.523
242004.000			18.091			-4.523
242105.000			18.092			-4.523
242204.000			18.093			-4.523
242304.000			18.091			-4.523
242403.000			18.090			-4.523
242504.000			18.090			-4.523
242603.000			18.089			-4.522
242704.000			18.091			-4.523
242804.000			18.091			-4.523
242905.000			18.092			-4.523
243004.000			18.092			-4.523
243104.000			18.091			-4.523
243205.000			18.090			-4.523
243303.000			18.090			-4.522
243404.000			18.089			-4.522
243504.000			18.089			-4.522
243604.000			18.089			-4.522
243704.000			18.090			-4.522
243805.000			18.090			-4.522
243904.000			18.089			-4.522
244004.000			18.089			-4.522
244105.000			18.089			-4.522
244203.000			18.090			-4.522
244304.000			18.090			-4.522
244404.000			18.089			-4.522
244504.000			18.088			-4.522
244604.000			18.089			-4.522
244705.000			18.089			-4.522
244804.000			18.089			-4.522
244904.000			18.088			-4.522
245005.000			18.088			-4.522
245104.000			18.089			-4.522
245204.000			18.089			-4.522
245304.000			18.088			-4.522
245404.000			18.088			-4.522
245504.000			18.087			-4.522
245604.000			18.088			-4.522
245704.000			18.088			-4.522
245805.000			18.087			-4.522
245904.000			18.088			-4.522
246004.000			18.087			-4.522
246105.000			18.086			-4.522
246203.000			18.087			-4.522
246304.000			18.086			-4.522
246405.000			18.085			-4.521
246504.000			18.086			-4.521
246604.000			18.086			-4.521
246705.000			18.085			-4.521
246804.000			18.085			-4.521
246904.000			18.085			-4.521
247005.000			18.086			-4.522
247103.000			18.085			-4.521
247204.000			18.085			-4.521
247305.000			18.085			-4.521
247404.000			18.086			-4.521
247504.000			18.085			-4.521
247605.000			18.084			-4.521
247704.000			18.083			-4.521
247804.000			18.085			-4.521
247905.000			18.085			-4.521
248003.000			18.083			-4.521
248104.000			18.084			-4.521
248204.000			18.084			-4.521
248304.000			18.085			-4.521
248404.000			18.084			-4.521
248505.000			18.085			-4.521
248604.000			18.084			-4.521
248704.000			18.083			-4.521
248805.000			18.083			-4.521
248903.000			18.082			-4.521
249005.000			18.082			-4.521
249103.000			18.082			-4.521
249204.000			18.081			-4.520
249305.000			18.082			-4.520
249404.000			18.082			-4.521
249504.000			18.081			-4.520
249605.000			18.080			-4.520
249704.000			18.081			-4.520
249804.000			18.081			-4.520
249905.000			18.081			-4.520
250003.000			18.082			-4.521
250104.000			18.081			-4.520
250205.000			18.080			-4.520
250304.000			18.080			-4.520
250404.000			18.081			-4.520
250505.000			18.081			-4.520
250604.000			18.080			-4.520
250704.000			18.080			-4.520
250805.000			18.081			-4.520
250903.000			18.080			-4.520
251004.000			18.080			-4.520
251105.000			18.079			-4.520
251204.000			18.079			-4.520
251304.000			18.080			-4.520
251405.000			18.081			-4.520
251504.000			18.081			-4.520
251603.000			18.079			-4.520
251705.000			18.078			-4.519
251803.000			18.079			-4.520
251904.000			18.079			-4.520
252005.000			18.079			-4.520
252104.000			18.079			-4.520
252205.000			18.078			-4.519
252304.000			18.077			-4.519
252404.000			18.079			-4.520
252505.000			18.079			-4.520
252604.000			18.078			-4.519
252703.000			18.078			-4.519
252805.000			18.076			-4.519
252904.000			18.077			-4.519
253004.000			18.077			-4.519
253105.000			18.078			-4.519
253204.000			18.077			-4.519
253304.000			18.077			-4.519
253405.000			18.077			-4.519
253504.000			18.076			-4.519
253603.000			18.076			-4.519
253705.000			18.077			-4.519
253804.000			18.076			-4.519
253904.000			18.076			-4.519
254005.000			18.077			-4.519
254104.000			18.076			-4.519
254204.000			18.076			-4.519
254305.000			18.076			-4.519
254404.000			18.076			-4.519
254503.000			18.076			-4.519
254605.000			18.076			-4.519
254704.000			18.076			-4.519
254804.000			18.076			-4.519
254905.000			18.076			-4.519
255004.000			18.075			-4.519
255104.000			18.075			-4.519
255204.000			18.076			-4.519
255304.000			18.075			-4.519
255403.000			18.074			-4.519
255504.000			18.075			-4.519
255603.000			18.075			-4.519
255705.000			18.075			-4.519
255804.000			18.075			-4.519
255904.000			18.075			-4.519
256005.000			18.074			-4.519
256104.000			18.075			-4.519
256204.000			18.074			-4.518
256304.000			18.074			-4.518
256404.000			18.074			-4.518
256504.000			18.073			-4.518
256605.000			18.073			-4.518
256704.000			18.074			-4.519
256804.000			18.074			-4.519
256905.000			18.073			-4.518
257004.000			18.073			-4.518
257104.000			18.073			-4.518
257204.000			18.072			-4.518
257304.000			18.073			-4.518
257404.000			18.073			-4.518
257505.000			18.072			-4.518
257604.000			18.072			-4.518
257704.000			18.072			-4.518
257805.000			18.072			-4.518
257904.000			18.072			-4.518
258004.000			18.073			-4.518
258104.000			18.072			-4.518
258204.000			18.071			-4.518
258304.000			18.072			-4.518
258404.000			18.072			-4.518
258504.000			18.072			-4.518
258605.000			18.072			-4.518
258704.000			18.072			-4.518
258804.000			18.071			-4.518
258905.000			18.071			-4.518
259003.000			18.071			-4.518
259104.000			18.072			-4.518
259205.000			18.071			-4.518
259304.000			18.071			-4.518
259404.000			18.070			-4.518
259505.000			18.070			-4.518
259604.000			18.070			-4.517
259704.000			18.070			-4.518
259805.000			18.070			-4.517
259903.000			18.070			-4.518
260004.000			18.070			-4.518
260105.000			18.070			-4.518
260204.000			18.070			-4.517
260304.000			18.071			-4.518
260405.000			18.069			-4.517
260504.000			18.069			-4.517
260604.000			18.069			-4.517
260705.000			18.069			-4.517
260803.000			18.069			-4.517
260904.000			18.069			-4.517
261004.000			18.070			-4.517
261104.000			18.068			-4.517
261204.000			18.068			-4.517
261305.000			18.068			-4.517
261404.000			18.068			-4.517
261504.000			18.068			-4.517
261605.000			18.067			-4.517
261703.000			18.068			-4.517
261805.000			18.067			-4.517
261904.000			18.067			-4.517
262004.000			18.067			-4.517
262105.000			18.068			-4.517
262204.000			18.068			-4.517
262304.000			18.066			-4.517
262405.000			18.066			-4.517
262504.000			18.067			-4.517
262603.000			18.067			-4.517
262705.000			18.066			-4.516
262804.000			18.065			-4.516
262904.000			18.066			-4.517
263005.000			18.066			-4.517
263104.000			18.066			-4.516
263204.000			18.066			-4.516
263305.000			18.065			-4.516
263404.000			18.065			-4.516
263503.000			18.066			-4.516
263605.000			18.066			-4.517
263704.000			18.066			-4.516
263804.000			18.065			-4.516
263905.000			18.065			-4.516
264004.000			18.066			-4.516
264104.000			18.066			-4.516
264205.000			18.067			-4.517
264304.000			18.067			-4.517
264403.000			18.067			-4.517
264505.000			18.067			-4.517
264604.000			18.067			-4.517
264704.000			18.066			-4.516
264805.000			18.066			-4.517
264904.000			18.066			-4.517
265005.000			18.066			-4.516
265104.000			18.066			-4.516
265204.000			18.066			-4.516
265304.000			18.066			-4.516
265404.000			18.066			-4.516
265503.000			18.066			-4.516
265605.000			18.066			-4.517
265704.000			18.066			-4.517
265804.000			18.066			-4.516
265905.000			18.066			-4.516
266004.000			18.065			-4.516
266104.000			18.066			-4.516
266204.000			18.066			-4.516
266304.000			18.066			-4.516
266403.000			18.066			-4.516
266505.000			18.065			-4.516
266604.000			18.064			-4.516
266704.000			18.064			-4.516
266805.000			18.063			-4.516
266904.000			18.063			-4.516
267004.000			18.063			-4.516
267104.000			18.063			-4.516
267204.000			18.062			-4.516
267303.000			18.062			-4.515
267405.000			18.062			-4.516
267504.000			18.061			-4.515
267604.000			18.061			-4.515
267705.000			18.061			-4.515
267804.000			18.061			-4.515
267904.000			18.061			-4.515
268003.000			18.061			-4.515
268104.000			18.061			-4.515
268203.000			18.060			-4.515
268304.000			18.060			-4.515
268404.000			18.062			-4.515
268505.000			18.060			-4.515
268604.000			18.059			-4.515
268704.000			18.059			-4.515
268805.000			18.058			-4.515
268904.000			18.057			-4.514
269004.000			18.058			-4.514
269104.000			18.059			-4.515
269204.000			18.059			-4.515
269304.000			18.058			-4.515
269405.000			18.058			-4.514
269504.000			18.057			-4.514
269604.000			18.058			-4.515
269705.000			18.058			-4.515
269804.000			18.057			-4.514
269904.000			18.056			-4.514
270004.000			18.058			-4.514
270104.000			18.057			-4.514
270204.000			18.057			-4.514
270305.000			18.057			-4.514
270404.000			18.056			-4.514
270504.000			18.058			-4.514
270605.000			18.057			-4.514
270704.000			18.057			-4.514
270804.000			18.056			-4.514
270904.000			18.055			-4.514
271004.000			18.056			-4.514
271104.000			18.056			-4.514
271204.000			18.056			-4.514
271304.000			18.056			-4.514
271405.000			18.057			-4.514
271504.000			18.055			-4.514
271604.000			18.055			-4.514
271705.000			18.056			-4.514
271803.000			18.055			-4.514
271904.000			18.055			-4.514
272005.000			18.056			-4.514
272104.000			18.055			-4.514
272204.000			18.055			-4.514
272305.000			18.055			-4.514
272404.000			18.054			-4.513
272504.000			18.054			-4.514
272605.000			18.054			-4.514
272703.000			18.053			-4.513
272804.000			18.054			-4.513
272905.000			18.053			-4.513
273004.000			18.053			-4.513
273104.000			18.052			-4.513
273205.000			18.052			-4.513
273304.000			18.053			-4.513
273404.000			18.052			-4.513
273505.000			18.053			-4.513
273603.000			18.053			-4.513
273704.000			18.052			-4.513
273805.000			18.052			-4.513
273904.000			18.052			-4.513
274004.000			18.053			-4.513
274105.000			18.053			-4.513
274204.000			18.051			-4.513
274303.000			18.051			-4.513
274405.000			18.051			-4.513
274504.000			18.051			-4.513
274605.000			18.051			-4.513
274704.000			18.051			-4.513
274804.000			18.051			-4.513
274905.000			18.051			-4.513
275004.000			18.051			-4.513
275104.000			18.051			-4.513
275204.000			18.051			-4.513
275304.000			18.051			-4.513
275404.000			18.050			-4.513
275505.000			18.051			-4.513
275604.000			18.049			-4.512
275704.000			18.050			-4.513
275805.000			18.050			-4.512
275904.000			18.049			-4.512
276004.000			18.049			-4.512
276104.000			18.049			-4.512
276204.000			18.049			-4.512
276303.000			18.049			-4.512
276405.000			18.049			-4.512
276504.000			18.049			-4.512
276604.000			18.049			-4.512
276705.000			18.049			-4.512
276804.000			18.048			-4.512
276904.000			18.048			-4.512
277004.000			18.048			-4.512
277104.000			18.048			-4.512
277203.000			18.048			-4.512
277305.000			18.048			-4.512
277404.000			18.047			-4.512
277504.000			18.047			-4.512
277605.000			18.047			-4.512
277704.000			18.047			-4.512
277805.000			18.047			-4.512
277904.000			18.047			-4.512
278004.000			18.046			-4.512
278104.000			18.046			-4.512
278204.000			18.046			-4.511
278304.000			18.045			-4.511
278405.000			18.045			-4.511
278504.000			18.046			-4.511
278604.000			18.046			-4.511
278705.000			18.046			-4.511
278804.000			18.045			-4.511
278904.000			18.045			-4.511
279004.000			18.046			-4.512
279104.000			18.046			-4.511
279204.000			18.045			-4.511
279305.000			18.045			-4.511
279404.000			18.046			-4.511
279504.000			18.045			-4.511
279605.000			18.046			-4.511
279704.000			18.045			-4.511
279804.000			18.045			-4.511
279904.000			18.044			-4.511
280004.000			18.044			-4.511
280103.000			18.044			-4.511
280205.000			18.044			-4.511
280304.000			18.045			-4.511
280404.000			18.045			-4.511
280505.000			18.044			-4.511
280604.000			18.044			-4.511
280704.000			18.044			-4.511
280803.000			18.044			-4.511
280904.000			18.043			-4.511
281005.000			18.043			-4.511
281104.000			18.043			-4.511
281204.000			18.042			-4.511
281305.000			18.043			-4.511
281404.000			18.042			-4.511
281504.000			18.043			-4.511
281605.000			18.042			-4.511
281703.000			18.042			-4.511
281804.000			18.043			-4.511
281905.000			18.041			-4.510
282004.000			18.042			-4.510
282104.000			18.043			-4.511
282205.000			18.042			-4.510
282304.000			18.042			-4.511
282404.000			18.041			-4.510
282505.000			18.043			-4.511
282603.000			18.042			-4.510
282704.000			18.042			-4.511
282805.000			18.043			-4.511
282904.000			18.042			-4.510
283004.000			18.042			-4.511
283105.000			18.042			-4.510
283204.000			18.042			-4.510
283304.000			18.041			-4.510
283405.000			18.041			-4.510
283503.000			18.042			-4.510
283604.000			18.041			-4.510
283705.000			18.041			-4.510
283804.000			18.042			-4.510
283904.000			18.042			-4.510
284004.000			18.042			-4.510
284104.000			18.042			-4.510
284205.000			18.041			-4.510
284304.000			18.041			-4.510
284403.000			18.040			-4.510
284505.000			18.040			-4.510
284604.000			18.039			-4.510
284704.000			18.039			-4.510
284805.000			18.040			-4.510
284904.000			18.041			-4.510
285004.000			18.041			-4.510
285104.000			18.040			-4.510
285204.000			18.040			-4.510
285303.000			18.039			-4.510
285405.000			18.039			-4.510
285504.000			18.039			-4.510
285604.000			18.039			-4.510
285705.000			18.039			-4.510
285804.000			18.039			-4.510
285904.000			18.039			-4.510
286005.000			18.038			-4.510
286104.000			18.038			-4.510
286203.000			18.038			-4.509
286305.000			18.037			-4.509
286404.000			18.038			-4.509
286504.000			18.039			-4.510
286605.000			18.038			-4.510
286704.000			18.038			-4.510
286804.000			18.039			-4.510
286905.000			18.038			-4.510
287004.000			18.038			-4.510
287103.000			18.037			-4.509
287205.000			18.037			-4.509
287304.000			18.037			-4.509
287405.000			18.036			-4.509
287504.000			18.036			-4.509
287604.000			18.036			-4.509
287705.000			18.035			-4.509
287804.000			18.036			-4.509
287904.000			18.036			-4.509
288004.000			18.036			-4.509
288104.000			18.036			-4.509
288204.000			18.036			-4.509
288305.000			18.035			-4.509
288404.000			18.035			-4.509
288504.000			18.035			-4.509
288605.000			18.036			-4.509
288704.000			18.036			-4.509
288804.000			18.035			-4.509
288904.000			18.035			-4.509
289004.000			18.036			-4.509
289104.000			18.036			-4.509
289205.000			18.035			-4.509
289304.000			18.035			-4.509
289404.000			18.035			-4.509
289505.000			18.033			-4.508
289604.000			18.033			-4.508
289704.000			18.033			-4.508
289804.000			18.034			-4.508
289904.000			18.034			-4.508
290004.000			18.035			-4.509
290105.000			18.035			-4.509
290204.000			18.034			-4.509
290304.000			18.034			-4.509
290405.000			18.034			-4.509
290504.000			18.034			-4.508
290605.000			18.033			-4.508
290703.000			18.033			-4.508
290804.000			18.033			-4.508
290905.000			18.032			-4.508
291004.000			18.033			-4.508
291104.000			18.034			-4.508
291205.000			18.033			-4.508
291304.000			18.033			-4.508
291404.000			18.033			-4.508
291505.000			18.034			-4.508
291603.000			18.033			-4.508
291704.000			18.032			-4.508
291805.000			18.031			-4.508
291904.000			18.031			-4.508
292004.000			18.032			-4.508
292105.000			18.032			-4.508
292204.000			18.032			-4.508
292303.000			18.031			-4.508
292405.000			18.031			-4.508
292503.000			18.031			-4.508
292604.000			18.030			-4.508
292705.000			18.030			-4.508
292804.000			18.030			-4.508
292904.000			18.030			-4.508
293005.000			18.031			-4.508
293104.000			18.030			-4.507
293203.000			18.030			-4.508
293305.000			18.029			-4.507
293404.000			18.029			-4.507
293504.000			18.030			-4.507
293605.000			18.030			-4.507
293704.000			18.029			-4.507
293805.000			18.030			-4.507
293904.000			18.029			-4.507
294004.000			18.029			-4.507
294104.000			18.030			-4.507
294204.000			18.029			-4.507
294303.000			18.030			-4.507
294405.000			18.030			-4.507
294504.000			18.030			-4.508
294604.000			18.030			-4.507
294705.000			18.029			-4.507
294804.000			18.029			-4.507
294904.000			18.029			-4.507
295004.000			18.029			-4.507
295104.000			18.029			-4.507
295203.000			18.028			-4.507
295305.000			18.028			-4.507
295404.000			18.028			-4.507
295504.000			18.027			-4.507
295605.000			18.027			-4.507
295704.000			18.028			-4.507
295804.000			18.028			-4.507
295905.000			18.029			-4.507
296004.000			18.028			-4.507
296103.000			18.027			-4.507
296205.000			18.027			-4.507
296304.000			18.027			-4.507
296404.000			18.027			-4.507
296505.000			18.027			-4.507
296604.000			18.027			-4.507
296704.000			18.027			-4.507
296804.000			18.027			-4.507
296904.000			18.026			-4.507
297003.000			18.026			-4.506
297104.000			18.025			-4.506
297204.000			18.025			-4.506
297305.000			18.025			-4.506
297404.000			18.026			-4.506
297504.000			18.025			-4.506
297605.000			18.024			-4.506
297704.000			18.025			-4.506
297804.000			18.024			-4.506
297904.000			18.024			-4.506
298004.000			18.024			-4.506
298104.000			18.023			-4.506
298205.000			18.024			-4.506
298304.000			18.025			-4.506
298404.000			18.025			-4.506
298505.000			18.024			-4.506
298604.000			18.024			-4.506
298704.000			18.024			-4.506
298804.000			18.023			-4.506
298904.000			18.023			-4.506
299004.000			18.023			-4.506
299105.000			18.023			-4.506
299204.000			18.024			-4.506
299304.000			18.023			-4.506
299405.000			18.023			-4.506
299504.000			18.022			-4.506
299604.000			18.022			-4.505
299704.000			18.021			-4.505
299804.000			18.021			-4.505
299903.000			18.022			-4.505
