# Acquired on 25/01/2024 17:46:30 
# SPIDER: Creep_-7mm_GRPCNT1454A-3
# CREEP MEASUREMENT

# time [ms]		force [N]		stiffness [N/mm]
1.000			30.187			-4.312
105.000			31.545			-4.506
204.000			31.392			-4.485
304.000			31.129			-4.447
405.000			30.932			-4.419
504.000			30.772			-4.396
604.000			30.637			-4.377
705.000			30.521			-4.360
804.000			30.320			-4.331
903.000			30.236			-4.319
1005.000			30.160			-4.309
1104.000			30.088			-4.298
1204.000			30.022			-4.289
1305.000			29.961			-4.280
1403.000			29.903			-4.272
1504.000			29.797			-4.257
1605.000			29.750			-4.250
1704.000			29.703			-4.243
1804.000			29.660			-4.237
1905.000			29.618			-4.231
2004.000			29.579			-4.226
2103.000			29.541			-4.220
2205.000			29.472			-4.210
2304.000			29.438			-4.205
2404.000			29.406			-4.201
2505.000			29.375			-4.196
2604.000			29.345			-4.192
2704.000			29.315			-4.188
2804.000			29.287			-4.184
2904.000			29.234			-4.176
3004.000			29.208			-4.173
3104.000			29.184			-4.169
3204.000			29.160			-4.166
3303.000			29.137			-4.162
3404.000			29.114			-4.159
3504.000			29.092			-4.156
3605.000			29.071			-4.153
3704.000			29.029			-4.147
3804.000			29.010			-4.144
3905.000			28.991			-4.142
4003.000			28.971			-4.139
4104.000			28.952			-4.136
4205.000			28.935			-4.134
4304.000			28.917			-4.131
4404.000			28.883			-4.126
4505.000			28.866			-4.124
4604.000			28.850			-4.121
4703.000			28.833			-4.119
4805.000			28.818			-4.117
4904.000			28.803			-4.115
5004.000			28.787			-4.112
5105.000			28.757			-4.108
5204.000			28.743			-4.106
5304.000			28.730			-4.104
5404.000			28.715			-4.102
5504.000			28.700			-4.100
5604.000			28.687			-4.098
5705.000			28.674			-4.096
5804.000			28.661			-4.094
5903.000			28.637			-4.091
6005.000			28.623			-4.089
6104.000			28.611			-4.087
6204.000			28.599			-4.086
6305.000			28.587			-4.084
6404.000			28.576			-4.082
6505.000			28.564			-4.081
6603.000			28.541			-4.077
6704.000			28.530			-4.076
6805.000			28.519			-4.074
6904.000			28.507			-4.072
7004.000			28.498			-4.071
7105.000			28.488			-4.070
7204.000			28.476			-4.068
7303.000			28.456			-4.065
7405.000			28.446			-4.064
7504.000			28.437			-4.062
7604.000			28.428			-4.061
7705.000			28.418			-4.060
7804.000			28.408			-4.058
7904.000			28.399			-4.057
8004.000			28.380			-4.054
8104.000			28.371			-4.053
8204.000			28.363			-4.052
8305.000			28.354			-4.051
8404.000			28.345			-4.049
8503.000			28.336			-4.048
8605.000			28.328			-4.047
8704.000			28.319			-4.046
8804.000			28.301			-4.043
8905.000			28.292			-4.042
9004.000			28.284			-4.041
9104.000			28.277			-4.040
9204.000			28.269			-4.038
9304.000			28.262			-4.037
9404.000			28.254			-4.036
9504.000			28.239			-4.034
9604.000			28.231			-4.033
9705.000			28.224			-4.032
9804.000			28.216			-4.031
9903.000			28.208			-4.030
10005.000			28.201			-4.029
10104.000			28.195			-4.028
10204.000			28.180			-4.026
10305.000			28.173			-4.025
10404.000			28.166			-4.024
10504.000			28.159			-4.023
10604.000			28.152			-4.022
10704.000			28.145			-4.021
10804.000			28.138			-4.020
10905.000			28.125			-4.018
11004.000			28.119			-4.017
11103.000			28.112			-4.016
11205.000			28.105			-4.015
11304.000			28.099			-4.014
11404.000			28.093			-4.013
11505.000			28.087			-4.012
11604.000			28.080			-4.011
11704.000			28.069			-4.010
11804.000			28.063			-4.009
11904.000			28.056			-4.008
12004.000			28.050			-4.007
12105.000			28.044			-4.006
12204.000			28.038			-4.005
12304.000			28.032			-4.005
12405.000			28.021			-4.003
12503.000			28.016			-4.002
12604.000			28.009			-4.001
12705.000			28.004			-4.001
12804.000			27.999			-4.000
12905.000			27.994			-3.999
13004.000			27.988			-3.998
13104.000			27.977			-3.997
13204.000			27.971			-3.996
13304.000			27.967			-3.995
13404.000			27.962			-3.995
13505.000			27.957			-3.994
13604.000			27.952			-3.993
13704.000			27.946			-3.992
13805.000			27.940			-3.991
13903.000			27.932			-3.990
14004.000			27.926			-3.989
14105.000			27.921			-3.989
14204.000			27.916			-3.988
14304.000			27.912			-3.987
14405.000			27.907			-3.987
14504.000			27.901			-3.986
14603.000			27.892			-3.985
14705.000			27.887			-3.984
14804.000			27.883			-3.983
14904.000			27.878			-3.983
15005.000			27.873			-3.982
15104.000			27.868			-3.981
15204.000			27.864			-3.981
15304.000			27.854			-3.979
15404.000			27.850			-3.979
15504.000			27.845			-3.978
15605.000			27.840			-3.977
15704.000			27.835			-3.976
15804.000			27.830			-3.976
15905.000			27.826			-3.975
16003.000			27.817			-3.974
16105.000			27.813			-3.973
16204.000			27.808			-3.973
16304.000			27.804			-3.972
16405.000			27.799			-3.971
16504.000			27.796			-3.971
16604.000			27.791			-3.970
16704.000			27.786			-3.969
16804.000			27.778			-3.968
16904.000			27.773			-3.968
17005.000			27.768			-3.967
17104.000			27.764			-3.966
17204.000			27.760			-3.966
17305.000			27.756			-3.965
17403.000			27.752			-3.965
17504.000			27.745			-3.964
17605.000			27.740			-3.963
17704.000			27.737			-3.962
17804.000			27.732			-3.962
17905.000			27.727			-3.961
18004.000			27.723			-3.960
18103.000			27.720			-3.960
18205.000			27.712			-3.959
18304.000			27.708			-3.958
18404.000			27.704			-3.958
18505.000			27.700			-3.957
18604.000			27.695			-3.956
18704.000			27.691			-3.956
18804.000			27.688			-3.955
18904.000			27.684			-3.955
19004.000			27.677			-3.954
19104.000			27.672			-3.953
19204.000			27.669			-3.953
19303.000			27.665			-3.952
19404.000			27.662			-3.952
19503.000			27.658			-3.951
19605.000			27.655			-3.951
19704.000			27.646			-3.949
19804.000			27.643			-3.949
19905.000			27.640			-3.949
20004.000			27.636			-3.948
20104.000			27.633			-3.948
20204.000			27.630			-3.947
20304.000			27.627			-3.947
20404.000			27.620			-3.946
20505.000			27.617			-3.945
20604.000			27.613			-3.945
20704.000			27.610			-3.944
20805.000			27.607			-3.944
20903.000			27.604			-3.943
21004.000			27.601			-3.943
21105.000			27.594			-3.942
21204.000			27.591			-3.942
21304.000			27.587			-3.941
21404.000			27.584			-3.941
21504.000			27.581			-3.940
21604.000			27.579			-3.940
21705.000			27.575			-3.939
21804.000			27.571			-3.939
21904.000			27.566			-3.938
22005.000			27.562			-3.937
22103.000			27.559			-3.937
22204.000			27.556			-3.937
22305.000			27.553			-3.936
22404.000			27.551			-3.936
22505.000			27.547			-3.935
22604.000			27.539			-3.934
22704.000			27.536			-3.934
22804.000			27.533			-3.933
22904.000			27.530			-3.933
23004.000			27.526			-3.932
23105.000			27.523			-3.932
23204.000			27.520			-3.931
23304.000			27.515			-3.931
23405.000			27.511			-3.930
23503.000			27.509			-3.930
23604.000			27.506			-3.929
23705.000			27.503			-3.929
23804.000			27.500			-3.929
23904.000			27.495			-3.928
24005.000			27.493			-3.928
24104.000			27.489			-3.927
24203.000			27.484			-3.926
24305.000			27.481			-3.926
24404.000			27.479			-3.926
24504.000			27.477			-3.925
24605.000			27.474			-3.925
24704.000			27.472			-3.925
24804.000			27.466			-3.924
24904.000			27.463			-3.923
25004.000			27.460			-3.923
25104.000			27.457			-3.922
25205.000			27.454			-3.922
25304.000			27.452			-3.922
25404.000			27.450			-3.921
25505.000			27.444			-3.921
25603.000			27.441			-3.920
25705.000			27.438			-3.920
25804.000			27.436			-3.919
25904.000			27.432			-3.919
26005.000			27.429			-3.918
26104.000			27.427			-3.918
26204.000			27.423			-3.918
26304.000			27.420			-3.917
26404.000			27.418			-3.917
26504.000			27.414			-3.916
26605.000			27.412			-3.916
26704.000			27.410			-3.916
26804.000			27.407			-3.915
26905.000			27.404			-3.915
27003.000			27.398			-3.914
27104.000			27.396			-3.914
27205.000			27.393			-3.913
27304.000			27.392			-3.913
27404.000			27.390			-3.913
27505.000			27.387			-3.912
27604.000			27.385			-3.912
27703.000			27.379			-3.911
27805.000			27.377			-3.911
27904.000			27.375			-3.911
28004.000			27.371			-3.910
28105.000			27.369			-3.910
28204.000			27.367			-3.910
28304.000			27.364			-3.909
28404.000			27.361			-3.909
28504.000			27.358			-3.908
28604.000			27.355			-3.908
28704.000			27.352			-3.907
28804.000			27.350			-3.907
28903.000			27.347			-3.907
29004.000			27.345			-3.906
29103.000			27.343			-3.906
29205.000			27.338			-3.905
29304.000			27.336			-3.905
29404.000			27.333			-3.905
29505.000			27.330			-3.904
29603.000			27.328			-3.904
29704.000			27.326			-3.904
29804.000			27.323			-3.903
29904.000			27.317			-3.902
30004.000			27.316			-3.902
30105.000			27.314			-3.902
30204.000			27.312			-3.902
30303.000			27.309			-3.901
30405.000			27.307			-3.901
30504.000			27.305			-3.901
30604.000			27.299			-3.900
30705.000			27.298			-3.900
30804.000			27.296			-3.899
30904.000			27.293			-3.899
31004.000			27.291			-3.899
31104.000			27.289			-3.898
31204.000			27.286			-3.898
31305.000			27.281			-3.897
31404.000			27.279			-3.897
31504.000			27.276			-3.897
31605.000			27.274			-3.896
31703.000			27.272			-3.896
31804.000			27.270			-3.896
31905.000			27.268			-3.895
32004.000			27.265			-3.895
32105.000			27.262			-3.895
32204.000			27.259			-3.894
32304.000			27.257			-3.894
32404.000			27.256			-3.894
32504.000			27.252			-3.893
32604.000			27.250			-3.893
32705.000			27.248			-3.893
32804.000			27.243			-3.892
32904.000			27.240			-3.891
33005.000			27.238			-3.891
33103.000			27.236			-3.891
33204.000			27.234			-3.891
33305.000			27.232			-3.890
33404.000			27.230			-3.890
33504.000			27.226			-3.889
33605.000			27.223			-3.889
33704.000			27.221			-3.889
33803.000			27.219			-3.888
33905.000			27.217			-3.888
34004.000			27.215			-3.888
34104.000			27.212			-3.887
34205.000			27.209			-3.887
34304.000			27.206			-3.887
34404.000			27.203			-3.886
34505.000			27.200			-3.886
34604.000			27.199			-3.886
34704.000			27.197			-3.885
34805.000			27.195			-3.885
34904.000			27.193			-3.885
35003.000			27.188			-3.884
35105.000			27.186			-3.884
35204.000			27.185			-3.884
35305.000			27.182			-3.883
35404.000			27.180			-3.883
35504.000			27.178			-3.883
35605.000			27.176			-3.882
35703.000			27.172			-3.882
35804.000			27.170			-3.881
35905.000			27.169			-3.881
36004.000			27.166			-3.881
36104.000			27.165			-3.881
36205.000			27.163			-3.880
36304.000			27.161			-3.880
36403.000			27.157			-3.880
36505.000			27.154			-3.879
36604.000			27.153			-3.879
36704.000			27.150			-3.879
36805.000			27.148			-3.878
36904.000			27.146			-3.878
37004.000			27.144			-3.878
37104.000			27.142			-3.877
37204.000			27.139			-3.877
37304.000			27.137			-3.877
37405.000			27.135			-3.876
37504.000			27.134			-3.876
37604.000			27.131			-3.876
37705.000			27.129			-3.876
37803.000			27.128			-3.875
37904.000			27.123			-3.875
38005.000			27.121			-3.874
38104.000			27.119			-3.874
38204.000			27.117			-3.874
38304.000			27.116			-3.874
38404.000			27.115			-3.874
38503.000			27.114			-3.873
38604.000			27.109			-3.873
38704.000			27.108			-3.873
38805.000			27.105			-3.872
38904.000			27.103			-3.872
39003.000			27.102			-3.872
39105.000			27.101			-3.872
39204.000			27.099			-3.871
39304.000			27.094			-3.871
39405.000			27.093			-3.870
39504.000			27.092			-3.870
39604.000			27.089			-3.870
39704.000			27.088			-3.870
39804.000			27.087			-3.870
39904.000			27.085			-3.869
40005.000			27.084			-3.869
40104.000			27.080			-3.869
40204.000			27.078			-3.868
40305.000			27.078			-3.868
40403.000			27.077			-3.868
40504.000			27.075			-3.868
40605.000			27.072			-3.867
40704.000			27.071			-3.867
40804.000			27.068			-3.867
40905.000			27.065			-3.866
41004.000			27.064			-3.866
41103.000			27.061			-3.866
41205.000			27.060			-3.866
41304.000			27.059			-3.866
41404.000			27.057			-3.865
41505.000			27.053			-3.865
41604.000			27.051			-3.864
41705.000			27.049			-3.864
41803.000			27.048			-3.864
41904.000			27.047			-3.864
42005.000			27.046			-3.864
42104.000			27.045			-3.864
42204.000			27.042			-3.863
42304.000			27.037			-3.862
42404.000			27.036			-3.862
42504.000			27.035			-3.862
42605.000			27.033			-3.862
42704.000			27.031			-3.862
42804.000			27.029			-3.861
42905.000			27.028			-3.861
43003.000			27.025			-3.861
43104.000			27.022			-3.860
43205.000			27.020			-3.860
43304.000			27.019			-3.860
43404.000			27.018			-3.860
43505.000			27.017			-3.860
43604.000			27.016			-3.859
43703.000			27.012			-3.859
43805.000			27.011			-3.859
43904.000			27.010			-3.859
44004.000			27.009			-3.858
44105.000			27.007			-3.858
44203.000			27.006			-3.858
44304.000			27.004			-3.858
44405.000			27.001			-3.857
44504.000			26.999			-3.857
44604.000			26.998			-3.857
44704.000			26.997			-3.857
44804.000			26.995			-3.856
44903.000			26.994			-3.856
45004.000			26.992			-3.856
45104.000			26.992			-3.856
45205.000			26.989			-3.856
45304.000			26.987			-3.855
45404.000			26.985			-3.855
45505.000			26.984			-3.855
45603.000			26.982			-3.855
45704.000			26.981			-3.854
45805.000			26.979			-3.854
45904.000			26.975			-3.854
46004.000			26.973			-3.853
46105.000			26.972			-3.853
46204.000			26.971			-3.853
46304.000			26.969			-3.853
46405.000			26.967			-3.852
46503.000			26.965			-3.852
46604.000			26.963			-3.852
46705.000			26.961			-3.852
46804.000			26.959			-3.851
46904.000			26.958			-3.851
47005.000			26.956			-3.851
47104.000			26.954			-3.851
47203.000			26.953			-3.850
47305.000			26.950			-3.850
47404.000			26.947			-3.850
47504.000			26.946			-3.849
47605.000			26.945			-3.849
47704.000			26.943			-3.849
47804.000			26.941			-3.849
47903.000			26.940			-3.849
48004.000			26.938			-3.848
48105.000			26.935			-3.848
48204.000			26.935			-3.848
48304.000			26.934			-3.848
48405.000			26.932			-3.847
48504.000			26.930			-3.847
48603.000			26.930			-3.847
48705.000			26.929			-3.847
48804.000			26.925			-3.846
48904.000			26.923			-3.846
49005.000			26.923			-3.846
49104.000			26.921			-3.846
49204.000			26.920			-3.846
49304.000			26.920			-3.846
49404.000			26.917			-3.845
49504.000			26.915			-3.845
49605.000			26.914			-3.845
49704.000			26.912			-3.845
49804.000			26.911			-3.844
49905.000			26.909			-3.844
50003.000			26.909			-3.844
50104.000			26.907			-3.844
50205.000			26.906			-3.844
50304.000			26.903			-3.843
50404.000			26.902			-3.843
50505.000			26.900			-3.843
50604.000			26.899			-3.843
50703.000			26.898			-3.843
50805.000			26.897			-3.842
50904.000			26.895			-3.842
51004.000			26.893			-3.842
51105.000			26.891			-3.842
51204.000			26.890			-3.841
51305.000			26.887			-3.841
51403.000			26.885			-3.841
51504.000			26.884			-3.841
51605.000			26.883			-3.840
51704.000			26.881			-3.840
51804.000			26.879			-3.840
51905.000			26.878			-3.840
52004.000			26.877			-3.840
52103.000			26.875			-3.839
52205.000			26.874			-3.839
52304.000			26.872			-3.839
52404.000			26.869			-3.838
52505.000			26.867			-3.838
52604.000			26.865			-3.838
52704.000			26.865			-3.838
52804.000			26.864			-3.838
52904.000			26.863			-3.838
53004.000			26.861			-3.837
53105.000			26.859			-3.837
53204.000			26.857			-3.837
53304.000			26.856			-3.837
53405.000			26.854			-3.836
53503.000			26.853			-3.836
53604.000			26.851			-3.836
53705.000			26.849			-3.836
53804.000			26.849			-3.836
53904.000			26.847			-3.835
54005.000			26.845			-3.835
54104.000			26.844			-3.835
54203.000			26.842			-3.835
54305.000			26.841			-3.834
54404.000			26.841			-3.834
54505.000			26.839			-3.834
54604.000			26.837			-3.834
54704.000			26.835			-3.834
54805.000			26.834			-3.833
54903.000			26.833			-3.833
55004.000			26.832			-3.833
55105.000			26.830			-3.833
55204.000			26.827			-3.832
55304.000			26.827			-3.832
55405.000			26.824			-3.832
55504.000			26.823			-3.832
55603.000			26.822			-3.832
55705.000			26.822			-3.832
55804.000			26.820			-3.831
55904.000			26.818			-3.831
56005.000			26.817			-3.831
56104.000			26.814			-3.831
56204.000			26.814			-3.831
56304.000			26.813			-3.830
56404.000			26.811			-3.830
56504.000			26.809			-3.830
56605.000			26.808			-3.830
56704.000			26.807			-3.830
56804.000			26.805			-3.829
56905.000			26.804			-3.829
57003.000			26.803			-3.829
57104.000			26.802			-3.829
57205.000			26.800			-3.829
57304.000			26.798			-3.828
57404.000			26.798			-3.828
57504.000			26.796			-3.828
57604.000			26.795			-3.828
57703.000			26.793			-3.828
57804.000			26.791			-3.827
57904.000			26.790			-3.827
58005.000			26.789			-3.827
58104.000			26.789			-3.827
58204.000			26.788			-3.827
58305.000			26.785			-3.826
58403.000			26.783			-3.826
58504.000			26.782			-3.826
58605.000			26.781			-3.826
58704.000			26.780			-3.826
58804.000			26.780			-3.826
58905.000			26.778			-3.825
59004.000			26.774			-3.825
59103.000			26.774			-3.825
59205.000			26.773			-3.825
59304.000			26.772			-3.825
59404.000			26.770			-3.824
59505.000			26.769			-3.824
59604.000			26.768			-3.824
59704.000			26.766			-3.824
59804.000			26.765			-3.824
59904.000			26.765			-3.824
60004.000			26.765			-3.824
60105.000			26.764			-3.823
60204.000			26.762			-3.823
60304.000			26.761			-3.823
60405.000			26.759			-3.823
60503.000			26.759			-3.823
60604.000			26.758			-3.823
60705.000			26.757			-3.822
60804.000			26.755			-3.822
60905.000			26.755			-3.822
61004.000			26.753			-3.822
61104.000			26.751			-3.822
61204.000			26.750			-3.821
61304.000			26.749			-3.821
61404.000			26.748			-3.821
61505.000			26.747			-3.821
61604.000			26.747			-3.821
61704.000			26.745			-3.821
61805.000			26.743			-3.820
61903.000			26.742			-3.820
62004.000			26.742			-3.820
62105.000			26.741			-3.820
62204.000			26.739			-3.820
62304.000			26.738			-3.820
62405.000			26.737			-3.820
62504.000			26.737			-3.820
62603.000			26.734			-3.819
62705.000			26.732			-3.819
62804.000			26.730			-3.819
62904.000			26.730			-3.819
63005.000			26.729			-3.818
63104.000			26.729			-3.818
63204.000			26.728			-3.818
63304.000			26.726			-3.818
63404.000			26.723			-3.818
63504.000			26.721			-3.817
63605.000			26.719			-3.817
63704.000			26.718			-3.817
63804.000			26.718			-3.817
63905.000			26.717			-3.817
64003.000			26.717			-3.817
64105.000			26.714			-3.816
64204.000			26.712			-3.816
64304.000			26.710			-3.816
64405.000			26.709			-3.816
64504.000			26.708			-3.815
64604.000			26.707			-3.815
64704.000			26.707			-3.815
64804.000			26.704			-3.815
64904.000			26.704			-3.815
65005.000			26.703			-3.815
65104.000			26.701			-3.814
65203.000			26.700			-3.814
65305.000			26.699			-3.814
65403.000			26.698			-3.814
65504.000			26.697			-3.814
65605.000			26.695			-3.814
65704.000			26.693			-3.813
65804.000			26.692			-3.813
65905.000			26.691			-3.813
66004.000			26.690			-3.813
66103.000			26.689			-3.813
66205.000			26.689			-3.813
66304.000			26.685			-3.812
66404.000			26.685			-3.812
66505.000			26.683			-3.812
66604.000			26.683			-3.812
66704.000			26.682			-3.812
66804.000			26.681			-3.812
66904.000			26.679			-3.811
67004.000			26.677			-3.811
67104.000			26.676			-3.811
67204.000			26.675			-3.811
67305.000			26.674			-3.811
67404.000			26.672			-3.810
67503.000			26.671			-3.810
67605.000			26.669			-3.810
67704.000			26.668			-3.810
67804.000			26.668			-3.810
67905.000			26.667			-3.810
68004.000			26.665			-3.809
68104.000			26.665			-3.809
68204.000			26.663			-3.809
68304.000			26.661			-3.809
68403.000			26.661			-3.809
68505.000			26.658			-3.808
68604.000			26.658			-3.808
68704.000			26.657			-3.808
68805.000			26.655			-3.808
68904.000			26.654			-3.808
69004.000			26.654			-3.808
69104.000			26.652			-3.807
69204.000			26.650			-3.807
69304.000			26.649			-3.807
69405.000			26.648			-3.807
69504.000			26.647			-3.807
69604.000			26.646			-3.807
69705.000			26.645			-3.806
69803.000			26.645			-3.806
69904.000			26.642			-3.806
70005.000			26.641			-3.806
70104.000			26.640			-3.806
70204.000			26.638			-3.805
70304.000			26.638			-3.805
70404.000			26.637			-3.805
70503.000			26.635			-3.805
70604.000			26.633			-3.805
70704.000			26.633			-3.805
70805.000			26.632			-3.805
70904.000			26.631			-3.804
71004.000			26.630			-3.804
71105.000			26.629			-3.804
71203.000			26.627			-3.804
71304.000			26.626			-3.804
71405.000			26.625			-3.804
71504.000			26.623			-3.803
71604.000			26.623			-3.803
71705.000			26.622			-3.803
71804.000			26.620			-3.803
71903.000			26.620			-3.803
72005.000			26.619			-3.803
72104.000			26.616			-3.802
72204.000			26.615			-3.802
72305.000			26.614			-3.802
72404.000			26.615			-3.802
72504.000			26.614			-3.802
72604.000			26.613			-3.802
72704.000			26.612			-3.802
72804.000			26.609			-3.801
72905.000			26.609			-3.801
73004.000			26.607			-3.801
73104.000			26.607			-3.801
73205.000			26.606			-3.801
73303.000			26.604			-3.801
73404.000			26.603			-3.800
73505.000			26.601			-3.800
73604.000			26.600			-3.800
73705.000			26.599			-3.800
73804.000			26.599			-3.800
73904.000			26.598			-3.800
74004.000			26.595			-3.799
74104.000			26.595			-3.799
74204.000			26.595			-3.799
74305.000			26.592			-3.799
74404.000			26.591			-3.799
74504.000			26.590			-3.799
74605.000			26.589			-3.798
74703.000			26.589			-3.798
74804.000			26.588			-3.798
74905.000			26.587			-3.798
75004.000			26.585			-3.798
75104.000			26.585			-3.798
75205.000			26.583			-3.798
75304.000			26.583			-3.798
75403.000			26.582			-3.797
75505.000			26.580			-3.797
75604.000			26.579			-3.797
75704.000			26.577			-3.797
75805.000			26.576			-3.797
75904.000			26.575			-3.796
76004.000			26.574			-3.796
76104.000			26.573			-3.796
76204.000			26.573			-3.796
76304.000			26.572			-3.796
76405.000			26.571			-3.796
76504.000			26.570			-3.796
76604.000			26.569			-3.796
76705.000			26.567			-3.795
76804.000			26.567			-3.795
76905.000			26.566			-3.795
77003.000			26.565			-3.795
77104.000			26.564			-3.795
77205.000			26.561			-3.794
77304.000			26.560			-3.794
77404.000			26.561			-3.794
77505.000			26.560			-3.794
77604.000			26.558			-3.794
77703.000			26.557			-3.794
77805.000			26.556			-3.794
77904.000			26.556			-3.794
78004.000			26.554			-3.793
78105.000			26.554			-3.793
78204.000			26.554			-3.793
78304.000			26.551			-3.793
78404.000			26.550			-3.793
78504.000			26.550			-3.793
78604.000			26.548			-3.793
78705.000			26.548			-3.793
78804.000			26.546			-3.792
78904.000			26.545			-3.792
79005.000			26.544			-3.792
79103.000			26.544			-3.792
79204.000			26.543			-3.792
79305.000			26.542			-3.792
79404.000			26.540			-3.791
79504.000			26.540			-3.791
79605.000			26.539			-3.791
79704.000			26.538			-3.791
79803.000			26.536			-3.791
79905.000			26.535			-3.791
80004.000			26.534			-3.791
80105.000			26.533			-3.790
80204.000			26.532			-3.790
80304.000			26.532			-3.790
80405.000			26.532			-3.790
80503.000			26.529			-3.790
80604.000			26.529			-3.790
80705.000			26.528			-3.790
80804.000			26.526			-3.789
80904.000			26.526			-3.789
81005.000			26.525			-3.789
81104.000			26.524			-3.789
81203.000			26.522			-3.789
81305.000			26.522			-3.789
81404.000			26.522			-3.789
81504.000			26.519			-3.788
81605.000			26.519			-3.788
81704.000			26.517			-3.788
81804.000			26.516			-3.788
81904.000			26.517			-3.788
82004.000			26.515			-3.788
82104.000			26.515			-3.788
82205.000			26.516			-3.788
82304.000			26.513			-3.788
82404.000			26.512			-3.787
82505.000			26.510			-3.787
82603.000			26.509			-3.787
82704.000			26.508			-3.787
82805.000			26.508			-3.787
82904.000			26.507			-3.787
83004.000			26.504			-3.786
83104.000			26.504			-3.786
83204.000			26.504			-3.786
83303.000			26.502			-3.786
83404.000			26.501			-3.786
83504.000			26.501			-3.786
83605.000			26.499			-3.786
83704.000			26.499			-3.786
83804.000			26.497			-3.785
83905.000			26.498			-3.785
84003.000			26.497			-3.785
84104.000			26.495			-3.785
84205.000			26.495			-3.785
84304.000			26.494			-3.785
84404.000			26.492			-3.785
84505.000			26.490			-3.784
84604.000			26.490			-3.784
84703.000			26.490			-3.784
84805.000			26.489			-3.784
84904.000			26.488			-3.784
85004.000			26.487			-3.784
85105.000			26.486			-3.784
85204.000			26.485			-3.784
85304.000			26.484			-3.783
85405.000			26.482			-3.783
85504.000			26.481			-3.783
85603.000			26.481			-3.783
85705.000			26.481			-3.783
85804.000			26.480			-3.783
85904.000			26.478			-3.783
86005.000			26.478			-3.783
86104.000			26.478			-3.783
86204.000			26.476			-3.782
86303.000			26.475			-3.782
86404.000			26.474			-3.782
86505.000			26.473			-3.782
86604.000			26.473			-3.782
86704.000			26.471			-3.782
86805.000			26.470			-3.781
86904.000			26.470			-3.781
87003.000			26.468			-3.781
87105.000			26.468			-3.781
87204.000			26.467			-3.781
87304.000			26.467			-3.781
87405.000			26.466			-3.781
87504.000			26.464			-3.781
87604.000			26.464			-3.781
87704.000			26.463			-3.780
87804.000			26.462			-3.780
87904.000			26.462			-3.780
88005.000			26.460			-3.780
88104.000			26.458			-3.780
88204.000			26.458			-3.780
88305.000			26.457			-3.780
88404.000			26.456			-3.779
88504.000			26.455			-3.779
88604.000			26.455			-3.779
88704.000			26.454			-3.779
88804.000			26.451			-3.779
88905.000			26.451			-3.779
89004.000			26.451			-3.779
89104.000			26.449			-3.778
89205.000			26.450			-3.779
89303.000			26.448			-3.778
89404.000			26.447			-3.778
89505.000			26.448			-3.778
89604.000			26.445			-3.778
89705.000			26.446			-3.778
89804.000			26.444			-3.778
89904.000			26.441			-3.777
90004.000			26.442			-3.777
90104.000			26.442			-3.777
90204.000			26.442			-3.777
90305.000			26.439			-3.777
90404.000			26.440			-3.777
90504.000			26.438			-3.777
90605.000			26.436			-3.777
90703.000			26.436			-3.777
90804.000			26.436			-3.777
90905.000			26.435			-3.776
91004.000			26.433			-3.776
91104.000			26.433			-3.776
91205.000			26.432			-3.776
91304.000			26.432			-3.776
91403.000			26.431			-3.776
91505.000			26.430			-3.776
91604.000			26.429			-3.776
91704.000			26.427			-3.775
91805.000			26.426			-3.775
91904.000			26.426			-3.775
92004.000			26.425			-3.775
92104.000			26.424			-3.775
92204.000			26.424			-3.775
92304.000			26.422			-3.775
92405.000			26.420			-3.774
92504.000			26.420			-3.774
92604.000			26.420			-3.774
92705.000			26.419			-3.774
92803.000			26.418			-3.774
92905.000			26.417			-3.774
93004.000			26.417			-3.774
93104.000			26.416			-3.774
93205.000			26.414			-3.773
93304.000			26.413			-3.773
93404.000			26.412			-3.773
93504.000			26.411			-3.773
93604.000			26.410			-3.773
93704.000			26.410			-3.773
93805.000			26.409			-3.773
93904.000			26.408			-3.773
94004.000			26.407			-3.772
94105.000			26.408			-3.773
94203.000			26.407			-3.772
94304.000			26.405			-3.772
94405.000			26.406			-3.772
94504.000			26.405			-3.772
94604.000			26.402			-3.772
94705.000			26.402			-3.772
94804.000			26.401			-3.772
94903.000			26.401			-3.772
95005.000			26.400			-3.771
95104.000			26.399			-3.771
95204.000			26.398			-3.771
95305.000			26.397			-3.771
95404.000			26.395			-3.771
95504.000			26.395			-3.771
95604.000			26.395			-3.771
95704.000			26.394			-3.771
95804.000			26.393			-3.770
95904.000			26.392			-3.770
96004.000			26.391			-3.770
96105.000			26.391			-3.770
96204.000			26.390			-3.770
96303.000			26.390			-3.770
96405.000			26.389			-3.770
96504.000			26.387			-3.770
96604.000			26.387			-3.770
96705.000			26.386			-3.769
96804.000			26.385			-3.769
96904.000			26.384			-3.769
97004.000			26.383			-3.769
97104.000			26.382			-3.769
97204.000			26.381			-3.769
97305.000			26.380			-3.769
97404.000			26.381			-3.769
97504.000			26.380			-3.769
97605.000			26.378			-3.768
97704.000			26.377			-3.768
97804.000			26.377			-3.768
97904.000			26.376			-3.768
98004.000			26.375			-3.768
98104.000			26.373			-3.768
98205.000			26.373			-3.768
98304.000			26.373			-3.768
98404.000			26.373			-3.768
98505.000			26.372			-3.767
98603.000			26.370			-3.767
98704.000			26.369			-3.767
98805.000			26.368			-3.767
98904.000			26.368			-3.767
99004.000			26.366			-3.767
99104.000			26.365			-3.766
99204.000			26.365			-3.766
99303.000			26.365			-3.766
99404.000			26.364			-3.766
99503.000			26.363			-3.766
99605.000			26.363			-3.766
99704.000			26.361			-3.766
99804.000			26.361			-3.766
99905.000			26.360			-3.766
100004.000			26.360			-3.766
100104.000			26.359			-3.766
100204.000			26.358			-3.765
100304.000			26.356			-3.765
100404.000			26.355			-3.765
100505.000			26.354			-3.765
100604.000			26.353			-3.765
100704.000			26.354			-3.765
100805.000			26.353			-3.765
100903.000			26.352			-3.765
101004.000			26.351			-3.764
101105.000			26.350			-3.764
101204.000			26.350			-3.764
101304.000			26.348			-3.764
101405.000			26.347			-3.764
101504.000			26.347			-3.764
101603.000			26.346			-3.764
101705.000			26.346			-3.764
101804.000			26.346			-3.764
101904.000			26.344			-3.763
102005.000			26.343			-3.763
102104.000			26.342			-3.763
102204.000			26.341			-3.763
102303.000			26.342			-3.763
102404.000			26.341			-3.763
102505.000			26.339			-3.763
102604.000			26.339			-3.763
102704.000			26.338			-3.763
102805.000			26.338			-3.763
102904.000			26.336			-3.762
103003.000			26.335			-3.762
103105.000			26.335			-3.762
103204.000			26.334			-3.762
103304.000			26.334			-3.762
103405.000			26.332			-3.762
103504.000			26.331			-3.762
103604.000			26.331			-3.762
103704.000			26.331			-3.762
103804.000			26.329			-3.761
103904.000			26.329			-3.761
104005.000			26.328			-3.761
104104.000			26.327			-3.761
104204.000			26.327			-3.761
104305.000			26.326			-3.761
104403.000			26.325			-3.761
104504.000			26.325			-3.761
104605.000			26.325			-3.761
104704.000			26.324			-3.761
104804.000			26.321			-3.760
104905.000			26.320			-3.760
105004.000			26.320			-3.760
105103.000			26.320			-3.760
105205.000			26.320			-3.760
105304.000			26.318			-3.760
105404.000			26.317			-3.760
105505.000			26.317			-3.760
105604.000			26.315			-3.759
105705.000			26.315			-3.759
105803.000			26.314			-3.759
105904.000			26.313			-3.759
106005.000			26.312			-3.759
106104.000			26.313			-3.759
106204.000			26.312			-3.759
106305.000			26.311			-3.759
106404.000			26.310			-3.759
106503.000			26.309			-3.758
106605.000			26.309			-3.758
106704.000			26.308			-3.758
106804.000			26.308			-3.758
106905.000			26.307			-3.758
107004.000			26.305			-3.758
107104.000			26.305			-3.758
107204.000			26.305			-3.758
107304.000			26.304			-3.758
107404.000			26.303			-3.758
107505.000			26.302			-3.757
107604.000			26.302			-3.757
107704.000			26.301			-3.757
107805.000			26.300			-3.757
107903.000			26.299			-3.757
108004.000			26.297			-3.757
108104.000			26.297			-3.757
108204.000			26.298			-3.757
108304.000			26.297			-3.757
108405.000			26.295			-3.756
108504.000			26.295			-3.756
108604.000			26.294			-3.756
108705.000			26.293			-3.756
108803.000			26.294			-3.756
108905.000			26.293			-3.756
109004.000			26.292			-3.756
109104.000			26.292			-3.756
109205.000			26.290			-3.756
109304.000			26.290			-3.756
109404.000			26.289			-3.756
109504.000			26.289			-3.756
109604.000			26.288			-3.755
109704.000			26.286			-3.755
109805.000			26.286			-3.755
109904.000			26.285			-3.755
110004.000			26.285			-3.755
110105.000			26.284			-3.755
110203.000			26.283			-3.755
110304.000			26.283			-3.755
110405.000			26.282			-3.755
110504.000			26.281			-3.754
110604.000			26.280			-3.754
110705.000			26.279			-3.754
110804.000			26.278			-3.754
110903.000			26.277			-3.754
111005.000			26.277			-3.754
111104.000			26.277			-3.754
111204.000			26.276			-3.754
111305.000			26.275			-3.754
111404.000			26.274			-3.753
111504.000			26.273			-3.753
111604.000			26.273			-3.753
111704.000			26.273			-3.753
111803.000			26.273			-3.753
111905.000			26.272			-3.753
112004.000			26.271			-3.753
112105.000			26.270			-3.753
112204.000			26.269			-3.753
112304.000			26.267			-3.752
112405.000			26.267			-3.752
112503.000			26.267			-3.752
112604.000			26.266			-3.752
112705.000			26.264			-3.752
112804.000			26.264			-3.752
112904.000			26.263			-3.752
113005.000			26.262			-3.752
113104.000			26.261			-3.752
113203.000			26.261			-3.752
113305.000			26.263			-3.752
113404.000			26.262			-3.752
113504.000			26.261			-3.752
113605.000			26.260			-3.751
113704.000			26.259			-3.751
113804.000			26.260			-3.751
113904.000			26.258			-3.751
114004.000			26.257			-3.751
114104.000			26.256			-3.751
114205.000			26.256			-3.751
114304.000			26.255			-3.751
114404.000			26.254			-3.751
114505.000			26.253			-3.750
114603.000			26.253			-3.750
114704.000			26.252			-3.750
114805.000			26.252			-3.750
114904.000			26.252			-3.750
115004.000			26.250			-3.750
115104.000			26.249			-3.750
115204.000			26.248			-3.750
115303.000			26.249			-3.750
115404.000			26.248			-3.750
115504.000			26.247			-3.750
115605.000			26.246			-3.749
115704.000			26.244			-3.749
115804.000			26.244			-3.749
115905.000			26.244			-3.749
116003.000			26.244			-3.749
116104.000			26.243			-3.749
116205.000			26.241			-3.749
116304.000			26.241			-3.749
116404.000			26.242			-3.749
116505.000			26.240			-3.749
116604.000			26.239			-3.748
116703.000			26.238			-3.748
116805.000			26.238			-3.748
116904.000			26.237			-3.748
117004.000			26.237			-3.748
117105.000			26.236			-3.748
117204.000			26.236			-3.748
117304.000			26.234			-3.748
117404.000			26.232			-3.747
117504.000			26.233			-3.748
117604.000			26.232			-3.747
117705.000			26.232			-3.747
117804.000			26.231			-3.747
117904.000			26.230			-3.747
118005.000			26.229			-3.747
118104.000			26.228			-3.747
118204.000			26.229			-3.747
118303.000			26.228			-3.747
118404.000			26.226			-3.747
118505.000			26.226			-3.747
118604.000			26.226			-3.747
118704.000			26.225			-3.746
118805.000			26.225			-3.746
118904.000			26.224			-3.746
119003.000			26.224			-3.746
119105.000			26.224			-3.746
119204.000			26.223			-3.746
119304.000			26.222			-3.746
119405.000			26.220			-3.746
119504.000			26.220			-3.746
119604.000			26.220			-3.746
119704.000			26.218			-3.745
119804.000			26.217			-3.745
119904.000			26.217			-3.745
120005.000			26.216			-3.745
120104.000			26.216			-3.745
120204.000			26.215			-3.745
120305.000			26.215			-3.745
120403.000			26.213			-3.745
120504.000			26.213			-3.745
120605.000			26.213			-3.745
120704.000			26.212			-3.745
120804.000			26.210			-3.744
120905.000			26.210			-3.744
121004.000			26.209			-3.744
121103.000			26.209			-3.744
121205.000			26.209			-3.744
121304.000			26.209			-3.744
121404.000			26.208			-3.744
121505.000			26.206			-3.744
121604.000			26.206			-3.744
121705.000			26.206			-3.744
121804.000			26.205			-3.744
121904.000			26.204			-3.743
122004.000			26.204			-3.743
122104.000			26.204			-3.743
122204.000			26.203			-3.743
122305.000			26.201			-3.743
122404.000			26.201			-3.743
122504.000			26.199			-3.743
122605.000			26.199			-3.743
122703.000			26.200			-3.743
122804.000			26.199			-3.743
122905.000			26.199			-3.743
123004.000			26.196			-3.742
123104.000			26.195			-3.742
123205.000			26.196			-3.742
123304.000			26.195			-3.742
123403.000			26.195			-3.742
123505.000			26.194			-3.742
123604.000			26.193			-3.742
123704.000			26.193			-3.742
123805.000			26.193			-3.742
123904.000			26.192			-3.742
124004.000			26.191			-3.742
124104.000			26.190			-3.741
124204.000			26.190			-3.741
124304.000			26.189			-3.741
124405.000			26.189			-3.741
124504.000			26.187			-3.741
124604.000			26.187			-3.741
124705.000			26.187			-3.741
124803.000			26.187			-3.741
124905.000			26.186			-3.741
125003.000			26.185			-3.741
125104.000			26.184			-3.741
125205.000			26.184			-3.741
125304.000			26.183			-3.740
125404.000			26.181			-3.740
125505.000			26.182			-3.740
125604.000			26.181			-3.740
125703.000			26.180			-3.740
125805.000			26.181			-3.740
125904.000			26.179			-3.740
126004.000			26.178			-3.740
126105.000			26.177			-3.740
126204.000			26.177			-3.740
126304.000			26.178			-3.740
126404.000			26.177			-3.740
126504.000			26.175			-3.739
126604.000			26.174			-3.739
126705.000			26.173			-3.739
126804.000			26.173			-3.739
126904.000			26.173			-3.739
127005.000			26.172			-3.739
127103.000			26.171			-3.739
127204.000			26.171			-3.739
127305.000			26.171			-3.739
127404.000			26.170			-3.739
127504.000			26.170			-3.739
127605.000			26.169			-3.738
127704.000			26.168			-3.738
127803.000			26.168			-3.738
127905.000			26.168			-3.738
128003.000			26.167			-3.738
128105.000			26.165			-3.738
128204.000			26.165			-3.738
128304.000			26.166			-3.738
128405.000			26.165			-3.738
128504.000			26.163			-3.738
128604.000			26.163			-3.738
128704.000			26.163			-3.738
128804.000			26.162			-3.737
128904.000			26.161			-3.737
129005.000			26.161			-3.737
129104.000			26.160			-3.737
129204.000			26.159			-3.737
129305.000			26.158			-3.737
129403.000			26.158			-3.737
129504.000			26.158			-3.737
129605.000			26.157			-3.737
129704.000			26.156			-3.737
129804.000			26.155			-3.736
129905.000			26.155			-3.736
130004.000			26.156			-3.737
130103.000			26.155			-3.736
130205.000			26.154			-3.736
130304.000			26.151			-3.736
130404.000			26.151			-3.736
130505.000			26.151			-3.736
130604.000			26.152			-3.736
130704.000			26.151			-3.736
130804.000			26.150			-3.736
130904.000			26.149			-3.736
131003.000			26.149			-3.736
131105.000			26.147			-3.735
131204.000			26.146			-3.735
131305.000			26.146			-3.735
131404.000			26.146			-3.735
131504.000			26.146			-3.735
131605.000			26.145			-3.735
131703.000			26.145			-3.735
131804.000			26.144			-3.735
131905.000			26.143			-3.735
132004.000			26.143			-3.735
132104.000			26.143			-3.735
132205.000			26.142			-3.735
132304.000			26.142			-3.735
132404.000			26.142			-3.735
132505.000			26.138			-3.734
132603.000			26.138			-3.734
132704.000			26.138			-3.734
132805.000			26.138			-3.734
132904.000			26.137			-3.734
133004.000			26.137			-3.734
133105.000			26.136			-3.734
133204.000			26.136			-3.734
133303.000			26.135			-3.734
133405.000			26.135			-3.734
133504.000			26.134			-3.733
133604.000			26.133			-3.733
133705.000			26.132			-3.733
133804.000			26.132			-3.733
133904.000			26.131			-3.733
134005.000			26.130			-3.733
134104.000			26.130			-3.733
134203.000			26.129			-3.733
134305.000			26.128			-3.733
134404.000			26.127			-3.732
134505.000			26.127			-3.732
134604.000			26.127			-3.732
134704.000			26.126			-3.732
134805.000			26.124			-3.732
134903.000			26.125			-3.732
135004.000			26.124			-3.732
135104.000			26.124			-3.732
135204.000			26.123			-3.732
135304.000			26.123			-3.732
135405.000			26.122			-3.732
135504.000			26.121			-3.732
135604.000			26.120			-3.731
135705.000			26.119			-3.731
135803.000			26.119			-3.731
135904.000			26.119			-3.731
136004.000			26.118			-3.731
136104.000			26.118			-3.731
136204.000			26.117			-3.731
136305.000			26.117			-3.731
136404.000			26.116			-3.731
136504.000			26.116			-3.731
136605.000			26.115			-3.731
136703.000			26.115			-3.731
136804.000			26.113			-3.730
136905.000			26.112			-3.730
137004.000			26.113			-3.730
137104.000			26.114			-3.731
137205.000			26.112			-3.730
137304.000			26.111			-3.730
137403.000			26.110			-3.730
137505.000			26.109			-3.730
137603.000			26.111			-3.730
137705.000			26.108			-3.730
137804.000			26.107			-3.730
137904.000			26.108			-3.730
138005.000			26.108			-3.730
138104.000			26.107			-3.730
138204.000			26.107			-3.730
138304.000			26.105			-3.729
138404.000			26.105			-3.729
138503.000			26.104			-3.729
138605.000			26.103			-3.729
138704.000			26.102			-3.729
138804.000			26.103			-3.729
138905.000			26.104			-3.729
139004.000			26.101			-3.729
139104.000			26.100			-3.729
139204.000			26.100			-3.729
139304.000			26.099			-3.728
139403.000			26.098			-3.728
139505.000			26.098			-3.728
139604.000			26.099			-3.728
139704.000			26.097			-3.728
139805.000			26.096			-3.728
139904.000			26.097			-3.728
140004.000			26.096			-3.728
140104.000			26.095			-3.728
140204.000			26.094			-3.728
140303.000			26.093			-3.728
140405.000			26.092			-3.727
140504.000			26.093			-3.728
140604.000			26.093			-3.728
140705.000			26.092			-3.727
140804.000			26.091			-3.727
140905.000			26.090			-3.727
141003.000			26.090			-3.727
141104.000			26.089			-3.727
141205.000			26.089			-3.727
141304.000			26.089			-3.727
141404.000			26.087			-3.727
141505.000			26.086			-3.727
141604.000			26.086			-3.727
141704.000			26.086			-3.727
141805.000			26.086			-3.727
141903.000			26.086			-3.727
142004.000			26.084			-3.726
142105.000			26.084			-3.726
142204.000			26.084			-3.726
142304.000			26.083			-3.726
142405.000			26.082			-3.726
142504.000			26.081			-3.726
142604.000			26.080			-3.726
142705.000			26.080			-3.726
142803.000			26.079			-3.726
142904.000			26.078			-3.725
143005.000			26.079			-3.726
143104.000			26.079			-3.726
143204.000			26.077			-3.725
143305.000			26.077			-3.725
143404.000			26.076			-3.725
143504.000			26.076			-3.725
143605.000			26.075			-3.725
143703.000			26.074			-3.725
143804.000			26.075			-3.725
143905.000			26.075			-3.725
144004.000			26.075			-3.725
144105.000			26.073			-3.725
144204.000			26.072			-3.725
144304.000			26.071			-3.724
144405.000			26.071			-3.724
144504.000			26.070			-3.724
144603.000			26.070			-3.724
144705.000			26.068			-3.724
144804.000			26.067			-3.724
144904.000			26.068			-3.724
145005.000			26.068			-3.724
145104.000			26.067			-3.724
145204.000			26.067			-3.724
145304.000			26.066			-3.724
145404.000			26.066			-3.724
145503.000			26.065			-3.724
145605.000			26.063			-3.723
145704.000			26.063			-3.723
145804.000			26.063			-3.723
145905.000			26.063			-3.723
146004.000			26.063			-3.723
146104.000			26.062			-3.723
146204.000			26.062			-3.723
146304.000			26.061			-3.723
146403.000			26.059			-3.723
146505.000			26.059			-3.723
146604.000			26.059			-3.723
146704.000			26.059			-3.723
146805.000			26.058			-3.723
146904.000			26.057			-3.722
147004.000			26.057			-3.722
147103.000			26.056			-3.722
147204.000			26.056			-3.722
147303.000			26.054			-3.722
147404.000			26.054			-3.722
147504.000			26.053			-3.722
147605.000			26.054			-3.722
147704.000			26.053			-3.722
147804.000			26.052			-3.722
147905.000			26.051			-3.722
148003.000			26.050			-3.721
148104.000			26.050			-3.721
148205.000			26.051			-3.722
148304.000			26.051			-3.722
148404.000			26.049			-3.721
148505.000			26.048			-3.721
148604.000			26.049			-3.721
148704.000			26.047			-3.721
148805.000			26.047			-3.721
148903.000			26.046			-3.721
149004.000			26.046			-3.721
149105.000			26.045			-3.721
149204.000			26.046			-3.721
149304.000			26.046			-3.721
149405.000			26.046			-3.721
149504.000			26.044			-3.721
149604.000			26.042			-3.720
149705.000			26.041			-3.720
149803.000			26.043			-3.720
149904.000			26.041			-3.720
150004.000			26.041			-3.720
150104.000			26.040			-3.720
150204.000			26.040			-3.720
150304.000			26.040			-3.720
150404.000			26.040			-3.720
150505.000			26.040			-3.720
150604.000			26.039			-3.720
150703.000			26.038			-3.720
150805.000			26.038			-3.720
150903.000			26.037			-3.720
151004.000			26.036			-3.719
151105.000			26.036			-3.719
151204.000			26.035			-3.719
151304.000			26.034			-3.719
151405.000			26.034			-3.719
151504.000			26.034			-3.719
151603.000			26.033			-3.719
151705.000			26.033			-3.719
151804.000			26.034			-3.719
151904.000			26.032			-3.719
152005.000			26.031			-3.719
152104.000			26.031			-3.719
152204.000			26.030			-3.719
152305.000			26.029			-3.718
152404.000			26.030			-3.719
152503.000			26.029			-3.718
152605.000			26.028			-3.718
152704.000			26.028			-3.718
152804.000			26.026			-3.718
152905.000			26.027			-3.718
153004.000			26.026			-3.718
153104.000			26.026			-3.718
153204.000			26.025			-3.718
153304.000			26.025			-3.718
153403.000			26.024			-3.718
153505.000			26.023			-3.718
153604.000			26.022			-3.717
153705.000			26.022			-3.717
153804.000			26.022			-3.717
153904.000			26.021			-3.717
154005.000			26.021			-3.717
154103.000			26.021			-3.717
154204.000			26.020			-3.717
154305.000			26.019			-3.717
154404.000			26.019			-3.717
154504.000			26.019			-3.717
154605.000			26.018			-3.717
154704.000			26.018			-3.717
154804.000			26.018			-3.717
154905.000			26.017			-3.717
155003.000			26.014			-3.716
155104.000			26.014			-3.716
155205.000			26.014			-3.716
155304.000			26.014			-3.716
155404.000			26.014			-3.716
155505.000			26.013			-3.716
155604.000			26.012			-3.716
155703.000			26.013			-3.716
155805.000			26.013			-3.716
155903.000			26.011			-3.716
156004.000			26.011			-3.716
156105.000			26.011			-3.716
156204.000			26.010			-3.716
156304.000			26.010			-3.716
156405.000			26.008			-3.715
156504.000			26.009			-3.716
156603.000			26.008			-3.715
156705.000			26.007			-3.715
156804.000			26.006			-3.715
156905.000			26.006			-3.715
157004.000			26.006			-3.715
157104.000			26.006			-3.715
157205.000			26.005			-3.715
157304.000			26.005			-3.715
157404.000			26.004			-3.715
157504.000			26.004			-3.715
157604.000			26.003			-3.715
157704.000			26.002			-3.715
157805.000			26.001			-3.714
157904.000			26.000			-3.714
158004.000			26.000			-3.714
158105.000			26.000			-3.714
158204.000			25.999			-3.714
158304.000			25.999			-3.714
158404.000			25.998			-3.714
158504.000			25.998			-3.714
158604.000			25.999			-3.714
158705.000			25.998			-3.714
158804.000			25.996			-3.714
158904.000			25.995			-3.714
159005.000			25.996			-3.714
159104.000			25.996			-3.714
159204.000			25.995			-3.714
159304.000			25.993			-3.713
159404.000			25.992			-3.713
159503.000			25.992			-3.713
159605.000			25.992			-3.713
159704.000			25.992			-3.713
159804.000			25.991			-3.713
159905.000			25.991			-3.713
160004.000			25.990			-3.713
160105.000			25.991			-3.713
160204.000			25.989			-3.713
160304.000			25.989			-3.713
160404.000			25.989			-3.713
160504.000			25.987			-3.712
160604.000			25.988			-3.713
160705.000			25.986			-3.712
160804.000			25.987			-3.712
160904.000			25.986			-3.712
161005.000			25.985			-3.712
161104.000			25.984			-3.712
161204.000			25.984			-3.712
161304.000			25.984			-3.712
161404.000			25.984			-3.712
161504.000			25.983			-3.712
161605.000			25.983			-3.712
161704.000			25.982			-3.712
161804.000			25.981			-3.712
161905.000			25.981			-3.712
162004.000			25.981			-3.712
162104.000			25.980			-3.711
162204.000			25.979			-3.711
162304.000			25.979			-3.711
162403.000			25.978			-3.711
162505.000			25.978			-3.711
162604.000			25.977			-3.711
162704.000			25.977			-3.711
162805.000			25.976			-3.711
162904.000			25.975			-3.711
163004.000			25.976			-3.711
163104.000			25.976			-3.711
163204.000			25.975			-3.711
163303.000			25.974			-3.711
163404.000			25.975			-3.711
163504.000			25.974			-3.711
163605.000			25.973			-3.710
163704.000			25.972			-3.710
163804.000			25.972			-3.710
163905.000			25.972			-3.710
164004.000			25.972			-3.710
164104.000			25.971			-3.710
164204.000			25.971			-3.710
164304.000			25.971			-3.710
164404.000			25.969			-3.710
164505.000			25.969			-3.710
164604.000			25.969			-3.710
164704.000			25.969			-3.710
164805.000			25.969			-3.710
164904.000			25.969			-3.710
165004.000			25.968			-3.710
165104.000			25.967			-3.710
165204.000			25.967			-3.710
165303.000			25.966			-3.709
165405.000			25.964			-3.709
165504.000			25.964			-3.709
165604.000			25.964			-3.709
165705.000			25.965			-3.709
165804.000			25.965			-3.709
165904.000			25.963			-3.709
166005.000			25.961			-3.709
166104.000			25.961			-3.709
166203.000			25.961			-3.709
166305.000			25.961			-3.709
166404.000			25.961			-3.709
166505.000			25.960			-3.709
166604.000			25.960			-3.709
166704.000			25.960			-3.709
166805.000			25.959			-3.708
166904.000			25.959			-3.708
167004.000			25.959			-3.708
167104.000			25.957			-3.708
167204.000			25.957			-3.708
167303.000			25.957			-3.708
167405.000			25.956			-3.708
167504.000			25.956			-3.708
167604.000			25.956			-3.708
167705.000			25.955			-3.708
167804.000			25.955			-3.708
167904.000			25.956			-3.708
168004.000			25.955			-3.708
168104.000			25.953			-3.708
168203.000			25.952			-3.707
168305.000			25.951			-3.707
168404.000			25.952			-3.707
168504.000			25.952			-3.707
168605.000			25.952			-3.707
168704.000			25.951			-3.707
168804.000			25.949			-3.707
168905.000			25.948			-3.707
169004.000			25.948			-3.707
169103.000			25.947			-3.707
169205.000			25.947			-3.707
169304.000			25.948			-3.707
169404.000			25.947			-3.707
169505.000			25.946			-3.707
169604.000			25.946			-3.707
169705.000			25.945			-3.706
169804.000			25.945			-3.706
169904.000			25.944			-3.706
170004.000			25.944			-3.706
170104.000			25.944			-3.706
170203.000			25.944			-3.706
170305.000			25.943			-3.706
170404.000			25.942			-3.706
170504.000			25.942			-3.706
170605.000			25.942			-3.706
170704.000			25.941			-3.706
170804.000			25.940			-3.706
170905.000			25.941			-3.706
171004.000			25.939			-3.706
171103.000			25.938			-3.705
171205.000			25.938			-3.705
171304.000			25.938			-3.705
171404.000			25.938			-3.705
171505.000			25.938			-3.705
171604.000			25.937			-3.705
171704.000			25.936			-3.705
171805.000			25.936			-3.705
171904.000			25.936			-3.705
172003.000			25.935			-3.705
172105.000			25.935			-3.705
172204.000			25.934			-3.705
172304.000			25.932			-3.705
172405.000			25.933			-3.705
172504.000			25.933			-3.705
172604.000			25.933			-3.705
172704.000			25.932			-3.705
172804.000			25.932			-3.705
172903.000			25.932			-3.705
173004.000			25.931			-3.704
173103.000			25.930			-3.704
173205.000			25.931			-3.704
173304.000			25.930			-3.704
173404.000			25.929			-3.704
173505.000			25.929			-3.704
173604.000			25.928			-3.704
173704.000			25.927			-3.704
173804.000			25.927			-3.704
173904.000			25.927			-3.704
174003.000			25.927			-3.704
174105.000			25.925			-3.704
174204.000			25.924			-3.703
174304.000			25.924			-3.703
174405.000			25.924			-3.703
174504.000			25.924			-3.703
174604.000			25.924			-3.703
174704.000			25.924			-3.703
174804.000			25.922			-3.703
174903.000			25.922			-3.703
175005.000			25.922			-3.703
175104.000			25.921			-3.703
175204.000			25.920			-3.703
175305.000			25.921			-3.703
175404.000			25.920			-3.703
175504.000			25.919			-3.703
175604.000			25.919			-3.703
175704.000			25.918			-3.703
175803.000			25.919			-3.703
175905.000			25.918			-3.703
176004.000			25.916			-3.702
176105.000			25.916			-3.702
176204.000			25.916			-3.702
176304.000			25.916			-3.702
176405.000			25.914			-3.702
176504.000			25.914			-3.702
176604.000			25.914			-3.702
176704.000			25.913			-3.702
176804.000			25.913			-3.702
176904.000			25.913			-3.702
177005.000			25.913			-3.702
177104.000			25.912			-3.702
177204.000			25.911			-3.702
177305.000			25.910			-3.701
177404.000			25.910			-3.701
177504.000			25.910			-3.701
177604.000			25.910			-3.701
177704.000			25.909			-3.701
177803.000			25.908			-3.701
177905.000			25.909			-3.701
178004.000			25.908			-3.701
178104.000			25.907			-3.701
178205.000			25.907			-3.701
178304.000			25.907			-3.701
178404.000			25.907			-3.701
178504.000			25.907			-3.701
178604.000			25.906			-3.701
178703.000			25.906			-3.701
178805.000			25.904			-3.701
178904.000			25.903			-3.700
179004.000			25.903			-3.700
179105.000			25.903			-3.700
179204.000			25.903			-3.700
179305.000			25.903			-3.700
179404.000			25.903			-3.700
179504.000			25.902			-3.700
179604.000			25.901			-3.700
179704.000			25.901			-3.700
179804.000			25.899			-3.700
179905.000			25.900			-3.700
180004.000			25.900			-3.700
180104.000			25.900			-3.700
180205.000			25.900			-3.700
180304.000			25.900			-3.700
180404.000			25.897			-3.700
180504.000			25.897			-3.700
180604.000			25.897			-3.700
180704.000			25.896			-3.699
180805.000			25.897			-3.700
180904.000			25.897			-3.700
181004.000			25.897			-3.700
181105.000			25.895			-3.699
181204.000			25.895			-3.699
181304.000			25.896			-3.699
181404.000			25.896			-3.699
181504.000			25.895			-3.699
181603.000			25.893			-3.699
181705.000			25.893			-3.699
181804.000			25.893			-3.699
181904.000			25.892			-3.699
182005.000			25.892			-3.699
182104.000			25.891			-3.699
182204.000			25.892			-3.699
182304.000			25.892			-3.699
182404.000			25.892			-3.699
182503.000			25.890			-3.699
182604.000			25.890			-3.699
182704.000			25.889			-3.698
182805.000			25.888			-3.698
182904.000			25.888			-3.698
183004.000			25.889			-3.698
183105.000			25.889			-3.698
183204.000			25.889			-3.698
183304.000			25.888			-3.698
183404.000			25.888			-3.698
183504.000			25.887			-3.698
183604.000			25.887			-3.698
183705.000			25.887			-3.698
183804.000			25.886			-3.698
183904.000			25.885			-3.698
184005.000			25.885			-3.698
184104.000			25.885			-3.698
184204.000			25.884			-3.698
184304.000			25.884			-3.698
184404.000			25.884			-3.698
184503.000			25.882			-3.697
184605.000			25.882			-3.697
184704.000			25.882			-3.697
184804.000			25.881			-3.697
184905.000			25.881			-3.697
185004.000			25.880			-3.697
185104.000			25.879			-3.697
185205.000			25.879			-3.697
185304.000			25.880			-3.697
185403.000			25.879			-3.697
185505.000			25.878			-3.697
185604.000			25.877			-3.697
185705.000			25.878			-3.697
185804.000			25.878			-3.697
185904.000			25.878			-3.697
186005.000			25.877			-3.697
186104.000			25.877			-3.697
186204.000			25.876			-3.697
186305.000			25.875			-3.696
186404.000			25.874			-3.696
186503.000			25.874			-3.696
186605.000			25.873			-3.696
186704.000			25.873			-3.696
186804.000			25.873			-3.696
186905.000			25.871			-3.696
187004.000			25.872			-3.696
187104.000			25.871			-3.696
187205.000			25.869			-3.696
187304.000			25.869			-3.696
187403.000			25.869			-3.696
187505.000			25.869			-3.696
187603.000			25.868			-3.695
187704.000			25.867			-3.695
187805.000			25.867			-3.695
187904.000			25.867			-3.695
188004.000			25.866			-3.695
188105.000			25.866			-3.695
188204.000			25.865			-3.695
188304.000			25.865			-3.695
188405.000			25.863			-3.695
188503.000			25.863			-3.695
188604.000			25.863			-3.695
188705.000			25.862			-3.695
188804.000			25.862			-3.695
188905.000			25.862			-3.695
189004.000			25.861			-3.694
189104.000			25.861			-3.694
189205.000			25.861			-3.694
189304.000			25.861			-3.694
189403.000			25.860			-3.694
189505.000			25.859			-3.694
189603.000			25.859			-3.694
189704.000			25.859			-3.694
189805.000			25.858			-3.694
189904.000			25.857			-3.694
190004.000			25.856			-3.694
190105.000			25.856			-3.694
190204.000			25.856			-3.694
190304.000			25.855			-3.694
190405.000			25.855			-3.694
190503.000			25.856			-3.694
190604.000			25.855			-3.694
190705.000			25.854			-3.693
190804.000			25.853			-3.693
190904.000			25.852			-3.693
191005.000			25.852			-3.693
191104.000			25.852			-3.693
191204.000			25.851			-3.693
191305.000			25.851			-3.693
191403.000			25.850			-3.693
191504.000			25.849			-3.693
191605.000			25.850			-3.693
191704.000			25.851			-3.693
191804.000			25.850			-3.693
191904.000			25.849			-3.693
192004.000			25.849			-3.693
192105.000			25.847			-3.692
192204.000			25.848			-3.693
192303.000			25.847			-3.692
192405.000			25.846			-3.692
192504.000			25.846			-3.692
192604.000			25.845			-3.692
192705.000			25.845			-3.692
192804.000			25.844			-3.692
192904.000			25.844			-3.692
193005.000			25.844			-3.692
193104.000			25.845			-3.692
193203.000			25.843			-3.692
193305.000			25.842			-3.692
193403.000			25.843			-3.692
193504.000			25.842			-3.692
193605.000			25.841			-3.692
193704.000			25.841			-3.692
193804.000			25.841			-3.692
193905.000			25.841			-3.692
194004.000			25.840			-3.691
194104.000			25.839			-3.691
194205.000			25.838			-3.691
194303.000			25.839			-3.691
194404.000			25.839			-3.691
194505.000			25.838			-3.691
194604.000			25.838			-3.691
194704.000			25.838			-3.691
194805.000			25.837			-3.691
194904.000			25.836			-3.691
195004.000			25.836			-3.691
195105.000			25.836			-3.691
195203.000			25.836			-3.691
195305.000			25.835			-3.691
195403.000			25.834			-3.691
195504.000			25.834			-3.691
195605.000			25.832			-3.690
195704.000			25.832			-3.690
195804.000			25.833			-3.690
195905.000			25.832			-3.690
196004.000			25.832			-3.690
196104.000			25.832			-3.690
196205.000			25.831			-3.690
196303.000			25.831			-3.690
196404.000			25.832			-3.690
196505.000			25.831			-3.690
196604.000			25.831			-3.690
196704.000			25.831			-3.690
196805.000			25.831			-3.690
196904.000			25.830			-3.690
197004.000			25.829			-3.690
197105.000			25.828			-3.690
197203.000			25.827			-3.690
197304.000			25.826			-3.689
197405.000			25.825			-3.689
197504.000			25.825			-3.689
197604.000			25.825			-3.689
197705.000			25.826			-3.689
197804.000			25.824			-3.689
197904.000			25.824			-3.689
198005.000			25.823			-3.689
198103.000			25.824			-3.689
198204.000			25.823			-3.689
198303.000			25.823			-3.689
198404.000			25.822			-3.689
198505.000			25.822			-3.689
198604.000			25.822			-3.689
198704.000			25.821			-3.689
198805.000			25.820			-3.689
198904.000			25.820			-3.689
199004.000			25.820			-3.689
199105.000			25.820			-3.689
199203.000			25.820			-3.689
199304.000			25.819			-3.688
199405.000			25.817			-3.688
199504.000			25.816			-3.688
199604.000			25.816			-3.688
199705.000			25.817			-3.688
199804.000			25.817			-3.688
199904.000			25.817			-3.688
200005.000			25.814			-3.688
200103.000			25.815			-3.688
200204.000			25.814			-3.688
200304.000			25.813			-3.688
200404.000			25.813			-3.688
200504.000			25.812			-3.687
200605.000			25.812			-3.687
200704.000			25.813			-3.688
200804.000			25.812			-3.687
200905.000			25.811			-3.687
201003.000			25.811			-3.687
201104.000			25.811			-3.687
201205.000			25.812			-3.687
201304.000			25.811			-3.687
201404.000			25.810			-3.687
201504.000			25.811			-3.687
201604.000			25.810			-3.687
201705.000			25.810			-3.687
201804.000			25.809			-3.687
201903.000			25.809			-3.687
202005.000			25.808			-3.687
202104.000			25.807			-3.687
202204.000			25.807			-3.687
202305.000			25.808			-3.687
202404.000			25.805			-3.686
202504.000			25.805			-3.686
202604.000			25.806			-3.687
202704.000			25.805			-3.686
202803.000			25.805			-3.686
202905.000			25.804			-3.686
203004.000			25.803			-3.686
203104.000			25.803			-3.686
203205.000			25.804			-3.686
203304.000			25.803			-3.686
203404.000			25.802			-3.686
203504.000			25.802			-3.686
203604.000			25.800			-3.686
203704.000			25.801			-3.686
203805.000			25.801			-3.686
203904.000			25.801			-3.686
204004.000			25.800			-3.686
204105.000			25.800			-3.686
204204.000			25.800			-3.686
204304.000			25.799			-3.686
204404.000			25.798			-3.685
204504.000			25.797			-3.685
204603.000			25.797			-3.685
204705.000			25.798			-3.685
204804.000			25.798			-3.685
204905.000			25.797			-3.685
205004.000			25.796			-3.685
205104.000			25.795			-3.685
205205.000			25.795			-3.685
205304.000			25.795			-3.685
205404.000			25.795			-3.685
205504.000			25.794			-3.685
205604.000			25.795			-3.685
205704.000			25.795			-3.685
205805.000			25.793			-3.685
205904.000			25.793			-3.685
206004.000			25.792			-3.685
206105.000			25.791			-3.684
206204.000			25.791			-3.684
206304.000			25.790			-3.684
206404.000			25.791			-3.684
206504.000			25.789			-3.684
206604.000			25.790			-3.684
206705.000			25.791			-3.684
206804.000			25.791			-3.684
206904.000			25.790			-3.684
207005.000			25.789			-3.684
207104.000			25.788			-3.684
207204.000			25.787			-3.684
207304.000			25.788			-3.684
207404.000			25.787			-3.684
207504.000			25.786			-3.684
207605.000			25.786			-3.684
207704.000			25.785			-3.684
207804.000			25.786			-3.684
207905.000			25.785			-3.684
208004.000			25.784			-3.683
208105.000			25.784			-3.683
208203.000			25.784			-3.683
208304.000			25.782			-3.683
208404.000			25.783			-3.683
208504.000			25.784			-3.683
208604.000			25.783			-3.683
208705.000			25.782			-3.683
208804.000			25.782			-3.683
208904.000			25.783			-3.683
209005.000			25.782			-3.683
209104.000			25.781			-3.683
209204.000			25.780			-3.683
209304.000			25.779			-3.683
209404.000			25.780			-3.683
209504.000			25.780			-3.683
209605.000			25.779			-3.683
209704.000			25.778			-3.683
209804.000			25.777			-3.682
209905.000			25.777			-3.682
210004.000			25.777			-3.682
210104.000			25.778			-3.683
210204.000			25.776			-3.682
210304.000			25.776			-3.682
210404.000			25.777			-3.682
210505.000			25.777			-3.682
210604.000			25.776			-3.682
210704.000			25.775			-3.682
210805.000			25.775			-3.682
210904.000			25.775			-3.682
211004.000			25.775			-3.682
211103.000			25.774			-3.682
211204.000			25.774			-3.682
211305.000			25.774			-3.682
211404.000			25.774			-3.682
211504.000			25.773			-3.682
211605.000			25.772			-3.682
211704.000			25.772			-3.682
211804.000			25.771			-3.682
211905.000			25.772			-3.682
212003.000			25.772			-3.682
212104.000			25.772			-3.682
212205.000			25.772			-3.682
212304.000			25.771			-3.682
212404.000			25.770			-3.681
212505.000			25.770			-3.681
212604.000			25.770			-3.681
212704.000			25.770			-3.681
212805.000			25.769			-3.681
212903.000			25.767			-3.681
213004.000			25.767			-3.681
213105.000			25.767			-3.681
213204.000			25.766			-3.681
213304.000			25.766			-3.681
213405.000			25.766			-3.681
213504.000			25.767			-3.681
213604.000			25.767			-3.681
213705.000			25.765			-3.681
213803.000			25.765			-3.681
213904.000			25.766			-3.681
214005.000			25.765			-3.681
214104.000			25.765			-3.681
214204.000			25.765			-3.681
214304.000			25.765			-3.681
214404.000			25.765			-3.681
214505.000			25.764			-3.681
214604.000			25.764			-3.681
214703.000			25.763			-3.680
214805.000			25.763			-3.680
214904.000			25.762			-3.680
215004.000			25.761			-3.680
215105.000			25.762			-3.680
215204.000			25.761			-3.680
215304.000			25.760			-3.680
215405.000			25.760			-3.680
215504.000			25.760			-3.680
215603.000			25.759			-3.680
215705.000			25.759			-3.680
215804.000			25.759			-3.680
215904.000			25.759			-3.680
216005.000			25.757			-3.680
216104.000			25.757			-3.680
216204.000			25.757			-3.680
216305.000			25.756			-3.679
216404.000			25.755			-3.679
216503.000			25.755			-3.679
216605.000			25.755			-3.679
216703.000			25.755			-3.679
216804.000			25.755			-3.679
216905.000			25.754			-3.679
217004.000			25.753			-3.679
217104.000			25.753			-3.679
217205.000			25.752			-3.679
217304.000			25.752			-3.679
217403.000			25.752			-3.679
217505.000			25.751			-3.679
217603.000			25.751			-3.679
217705.000			25.751			-3.679
217804.000			25.751			-3.679
217904.000			25.750			-3.679
218005.000			25.749			-3.678
218104.000			25.749			-3.678
218204.000			25.748			-3.678
218304.000			25.748			-3.678
218404.000			25.749			-3.678
218503.000			25.747			-3.678
218605.000			25.747			-3.678
218704.000			25.748			-3.678
218804.000			25.747			-3.678
218905.000			25.745			-3.678
219004.000			25.745			-3.678
219104.000			25.745			-3.678
219205.000			25.745			-3.678
219304.000			25.743			-3.678
219403.000			25.744			-3.678
219505.000			25.744			-3.678
219604.000			25.742			-3.677
219704.000			25.743			-3.678
219805.000			25.743			-3.678
219904.000			25.742			-3.677
220004.000			25.742			-3.677
220105.000			25.741			-3.677
220204.000			25.741			-3.677
220303.000			25.741			-3.677
220405.000			25.741			-3.677
220504.000			25.741			-3.677
220604.000			25.739			-3.677
220705.000			25.738			-3.677
220804.000			25.739			-3.677
220905.000			25.739			-3.677
221004.000			25.738			-3.677
221104.000			25.736			-3.677
221204.000			25.736			-3.677
221304.000			25.735			-3.676
221404.000			25.735			-3.676
221505.000			25.735			-3.676
221604.000			25.735			-3.676
221704.000			25.734			-3.676
221805.000			25.736			-3.677
221903.000			25.734			-3.676
222004.000			25.734			-3.676
222105.000			25.734			-3.676
222204.000			25.734			-3.676
222304.000			25.733			-3.676
222405.000			25.733			-3.676
222504.000			25.732			-3.676
222604.000			25.732			-3.676
222705.000			25.731			-3.676
222803.000			25.732			-3.676
222904.000			25.731			-3.676
223005.000			25.731			-3.676
223104.000			25.731			-3.676
223204.000			25.731			-3.676
223305.000			25.729			-3.676
223404.000			25.730			-3.676
223504.000			25.728			-3.675
223605.000			25.728			-3.675
223703.000			25.728			-3.675
223804.000			25.727			-3.675
223905.000			25.728			-3.675
224004.000			25.726			-3.675
224105.000			25.726			-3.675
224204.000			25.726			-3.675
224304.000			25.726			-3.675
224405.000			25.726			-3.675
224504.000			25.725			-3.675
224603.000			25.725			-3.675
224705.000			25.724			-3.675
224804.000			25.724			-3.675
224904.000			25.724			-3.675
225005.000			25.724			-3.675
225104.000			25.723			-3.675
225204.000			25.723			-3.675
225304.000			25.722			-3.675
225404.000			25.722			-3.675
225503.000			25.722			-3.675
225605.000			25.721			-3.674
225704.000			25.722			-3.675
225804.000			25.722			-3.675
225905.000			25.721			-3.674
226004.000			25.720			-3.674
226104.000			25.720			-3.674
226204.000			25.720			-3.674
226304.000			25.720			-3.674
226403.000			25.719			-3.674
226505.000			25.718			-3.674
226604.000			25.718			-3.674
226704.000			25.718			-3.674
226805.000			25.718			-3.674
226904.000			25.717			-3.674
227004.000			25.716			-3.674
227104.000			25.716			-3.674
227204.000			25.716			-3.674
227303.000			25.715			-3.674
227404.000			25.715			-3.674
227504.000			25.715			-3.674
227605.000			25.716			-3.674
227704.000			25.715			-3.674
227804.000			25.714			-3.673
227905.000			25.714			-3.673
228004.000			25.713			-3.673
228104.000			25.713			-3.673
228204.000			25.713			-3.673
228304.000			25.713			-3.673
228404.000			25.711			-3.673
228505.000			25.711			-3.673
228604.000			25.711			-3.673
228704.000			25.711			-3.673
228805.000			25.711			-3.673
228903.000			25.710			-3.673
229004.000			25.710			-3.673
229104.000			25.709			-3.673
229204.000			25.709			-3.673
229304.000			25.709			-3.673
229405.000			25.709			-3.673
229504.000			25.708			-3.673
229604.000			25.708			-3.673
229705.000			25.707			-3.672
229803.000			25.707			-3.672
229904.000			25.707			-3.672
230004.000			25.706			-3.672
230104.000			25.706			-3.672
230204.000			25.706			-3.672
230304.000			25.706			-3.672
230404.000			25.706			-3.672
230505.000			25.705			-3.672
230604.000			25.705			-3.672
230703.000			25.704			-3.672
230805.000			25.704			-3.672
230903.000			25.704			-3.672
231004.000			25.703			-3.672
231105.000			25.703			-3.672
231204.000			25.703			-3.672
231304.000			25.704			-3.672
231405.000			25.703			-3.672
231504.000			25.703			-3.672
231603.000			25.703			-3.672
231705.000			25.702			-3.672
231804.000			25.701			-3.672
231904.000			25.701			-3.672
232005.000			25.700			-3.671
232104.000			25.699			-3.671
232204.000			25.698			-3.671
232305.000			25.699			-3.671
232404.000			25.699			-3.671
232503.000			25.698			-3.671
232605.000			25.698			-3.671
232704.000			25.698			-3.671
232804.000			25.697			-3.671
232905.000			25.696			-3.671
233004.000			25.696			-3.671
233104.000			25.696			-3.671
233205.000			25.695			-3.671
233304.000			25.695			-3.671
233403.000			25.695			-3.671
233505.000			25.695			-3.671
233603.000			25.695			-3.671
233705.000			25.695			-3.671
233804.000			25.695			-3.671
233904.000			25.693			-3.670
234005.000			25.694			-3.671
234104.000			25.693			-3.670
234204.000			25.692			-3.670
234305.000			25.693			-3.670
234404.000			25.693			-3.670
234503.000			25.692			-3.670
234605.000			25.691			-3.670
234704.000			25.691			-3.670
234804.000			25.690			-3.670
234905.000			25.690			-3.670
235004.000			25.690			-3.670
235104.000			25.690			-3.670
235205.000			25.690			-3.670
235304.000			25.690			-3.670
235403.000			25.688			-3.670
235505.000			25.688			-3.670
235604.000			25.688			-3.670
235704.000			25.688			-3.670
235805.000			25.688			-3.670
235904.000			25.688			-3.670
236004.000			25.688			-3.670
236105.000			25.687			-3.670
236204.000			25.686			-3.669
236304.000			25.686			-3.669
236405.000			25.686			-3.669
236503.000			25.686			-3.669
236604.000			25.685			-3.669
236705.000			25.684			-3.669
236804.000			25.684			-3.669
236905.000			25.684			-3.669
237004.000			25.684			-3.669
237104.000			25.683			-3.669
237205.000			25.682			-3.669
237304.000			25.682			-3.669
237403.000			25.682			-3.669
237505.000			25.682			-3.669
237604.000			25.682			-3.669
237704.000			25.682			-3.669
237805.000			25.681			-3.669
237904.000			25.680			-3.669
238004.000			25.679			-3.668
238105.000			25.679			-3.668
238204.000			25.679			-3.668
238303.000			25.679			-3.668
238405.000			25.679			-3.668
238504.000			25.678			-3.668
238604.000			25.678			-3.668
238705.000			25.678			-3.668
238804.000			25.677			-3.668
238904.000			25.677			-3.668
239005.000			25.677			-3.668
239104.000			25.677			-3.668
239204.000			25.677			-3.668
239305.000			25.675			-3.668
239403.000			25.675			-3.668
239504.000			25.675			-3.668
239605.000			25.674			-3.668
239704.000			25.674			-3.668
239804.000			25.674			-3.668
239904.000			25.674			-3.668
240004.000			25.673			-3.668
240105.000			25.672			-3.667
240204.000			25.672			-3.667
240303.000			25.672			-3.667
240405.000			25.672			-3.667
240504.000			25.671			-3.667
240604.000			25.672			-3.667
240705.000			25.670			-3.667
240804.000			25.670			-3.667
240904.000			25.671			-3.667
241005.000			25.670			-3.667
241104.000			25.669			-3.667
241203.000			25.670			-3.667
241305.000			25.670			-3.667
241404.000			25.669			-3.667
241504.000			25.668			-3.667
241605.000			25.667			-3.667
241704.000			25.668			-3.667
241804.000			25.667			-3.667
241905.000			25.667			-3.667
242004.000			25.667			-3.667
242103.000			25.667			-3.667
242205.000			25.665			-3.666
242304.000			25.665			-3.666
242404.000			25.665			-3.666
242505.000			25.665			-3.666
242604.000			25.665			-3.666
242704.000			25.665			-3.666
242805.000			25.665			-3.666
242904.000			25.663			-3.666
243003.000			25.663			-3.666
243105.000			25.662			-3.666
243204.000			25.661			-3.666
243305.000			25.661			-3.666
243404.000			25.661			-3.666
243504.000			25.662			-3.666
243605.000			25.660			-3.666
243704.000			25.661			-3.666
243804.000			25.661			-3.666
243904.000			25.660			-3.666
244004.000			25.660			-3.666
244104.000			25.661			-3.666
244205.000			25.659			-3.666
244304.000			25.658			-3.665
244404.000			25.659			-3.666
244505.000			25.658			-3.665
244604.000			25.658			-3.665
244704.000			25.657			-3.665
244804.000			25.657			-3.665
244904.000			25.658			-3.665
245004.000			25.658			-3.665
245105.000			25.656			-3.665
245204.000			25.655			-3.665
245304.000			25.656			-3.665
245405.000			25.655			-3.665
245504.000			25.655			-3.665
245604.000			25.655			-3.665
245704.000			25.655			-3.665
245804.000			25.654			-3.665
245904.000			25.653			-3.665
246005.000			25.654			-3.665
246104.000			25.653			-3.665
246204.000			25.653			-3.665
246305.000			25.654			-3.665
246404.000			25.654			-3.665
246505.000			25.653			-3.665
246603.000			25.653			-3.665
246704.000			25.653			-3.665
246805.000			25.651			-3.664
246904.000			25.650			-3.664
247004.000			25.651			-3.664
247105.000			25.651			-3.664
247204.000			25.651			-3.664
247304.000			25.651			-3.664
247405.000			25.650			-3.664
247503.000			25.650			-3.664
247604.000			25.650			-3.664
247705.000			25.650			-3.664
247804.000			25.650			-3.664
247904.000			25.649			-3.664
248005.000			25.649			-3.664
248104.000			25.648			-3.664
248204.000			25.649			-3.664
248305.000			25.648			-3.664
248403.000			25.648			-3.664
248504.000			25.649			-3.664
248604.000			25.648			-3.664
248704.000			25.646			-3.664
248804.000			25.646			-3.664
248905.000			25.647			-3.664
249004.000			25.646			-3.664
249104.000			25.645			-3.664
249205.000			25.645			-3.664
249303.000			25.645			-3.664
249404.000			25.645			-3.664
249503.000			25.644			-3.663
249604.000			25.644			-3.663
249705.000			25.644			-3.663
249804.000			25.644			-3.663
249904.000			25.644			-3.663
250005.000			25.643			-3.663
250104.000			25.642			-3.663
250204.000			25.641			-3.663
250305.000			25.641			-3.663
250403.000			25.641			-3.663
250504.000			25.641			-3.663
250605.000			25.640			-3.663
250704.000			25.640			-3.663
250804.000			25.640			-3.663
250905.000			25.639			-3.663
251004.000			25.638			-3.663
251103.000			25.638			-3.663
251205.000			25.637			-3.662
251303.000			25.637			-3.662
251404.000			25.637			-3.662
251505.000			25.638			-3.663
251604.000			25.637			-3.662
251704.000			25.637			-3.662
251805.000			25.637			-3.662
251904.000			25.636			-3.662
252003.000			25.635			-3.662
252105.000			25.635			-3.662
252203.000			25.634			-3.662
252304.000			25.633			-3.662
252405.000			25.634			-3.662
252504.000			25.633			-3.662
252604.000			25.633			-3.662
252704.000			25.633			-3.662
252804.000			25.633			-3.662
252903.000			25.633			-3.662
253004.000			25.632			-3.662
253103.000			25.631			-3.662
253205.000			25.631			-3.662
253304.000			25.631			-3.662
253404.000			25.631			-3.662
253505.000			25.630			-3.661
253604.000			25.630			-3.661
253704.000			25.631			-3.662
253804.000			25.629			-3.661
253904.000			25.629			-3.661
254003.000			25.629			-3.661
254105.000			25.629			-3.661
254204.000			25.629			-3.661
254304.000			25.629			-3.661
254405.000			25.628			-3.661
254504.000			25.628			-3.661
254604.000			25.627			-3.661
254704.000			25.627			-3.661
254804.000			25.627			-3.661
254903.000			25.627			-3.661
255005.000			25.626			-3.661
255104.000			25.625			-3.661
255204.000			25.626			-3.661
255305.000			25.625			-3.661
255404.000			25.625			-3.661
255504.000			25.624			-3.661
255604.000			25.623			-3.660
255704.000			25.623			-3.660
255803.000			25.623			-3.660
255905.000			25.623			-3.660
256004.000			25.623			-3.660
256105.000			25.623			-3.660
256204.000			25.621			-3.660
256304.000			25.621			-3.660
256405.000			25.621			-3.660
256504.000			25.620			-3.660
256604.000			25.620			-3.660
256704.000			25.620			-3.660
256804.000			25.620			-3.660
256904.000			25.620			-3.660
257005.000			25.620			-3.660
257104.000			25.620			-3.660
257204.000			25.619			-3.660
257305.000			25.619			-3.660
257404.000			25.619			-3.660
257504.000			25.617			-3.660
257604.000			25.617			-3.660
257704.000			25.617			-3.660
257804.000			25.616			-3.659
257905.000			25.617			-3.660
258004.000			25.616			-3.659
258104.000			25.616			-3.659
258205.000			25.614			-3.659
258304.000			25.615			-3.659
258404.000			25.615			-3.659
258504.000			25.615			-3.659
258604.000			25.615			-3.659
258704.000			25.614			-3.659
258805.000			25.614			-3.659
258904.000			25.613			-3.659
259004.000			25.613			-3.659
259105.000			25.612			-3.659
259204.000			25.613			-3.659
259305.000			25.613			-3.659
259403.000			25.612			-3.659
259504.000			25.611			-3.659
259605.000			25.611			-3.659
259704.000			25.612			-3.659
259804.000			25.612			-3.659
259905.000			25.612			-3.659
260004.000			25.611			-3.659
260104.000			25.610			-3.659
260205.000			25.610			-3.659
260303.000			25.609			-3.658
260404.000			25.608			-3.658
260505.000			25.608			-3.658
260604.000			25.608			-3.658
260704.000			25.607			-3.658
260805.000			25.606			-3.658
260904.000			25.607			-3.658
261004.000			25.607			-3.658
261105.000			25.607			-3.658
261203.000			25.607			-3.658
261304.000			25.607			-3.658
261405.000			25.606			-3.658
261504.000			25.605			-3.658
261604.000			25.605			-3.658
261705.000			25.606			-3.658
261804.000			25.605			-3.658
261903.000			25.604			-3.658
262005.000			25.603			-3.658
262103.000			25.605			-3.658
262204.000			25.605			-3.658
262305.000			25.604			-3.658
262404.000			25.604			-3.658
262505.000			25.603			-3.658
262604.000			25.603			-3.658
262704.000			25.603			-3.658
262804.000			25.602			-3.657
262904.000			25.603			-3.658
263003.000			25.602			-3.657
263105.000			25.601			-3.657
263204.000			25.600			-3.657
263304.000			25.601			-3.657
263405.000			25.601			-3.657
263504.000			25.600			-3.657
263604.000			25.600			-3.657
263704.000			25.600			-3.657
263804.000			25.599			-3.657
263904.000			25.598			-3.657
264005.000			25.598			-3.657
264104.000			25.597			-3.657
264204.000			25.597			-3.657
264305.000			25.597			-3.657
264404.000			25.597			-3.657
264504.000			25.597			-3.657
264604.000			25.596			-3.657
264704.000			25.596			-3.657
264803.000			25.596			-3.657
264905.000			25.596			-3.657
265004.000			25.595			-3.656
265104.000			25.594			-3.656
265205.000			25.595			-3.656
265304.000			25.595			-3.656
265404.000			25.595			-3.656
265503.000			25.594			-3.656
265604.000			25.593			-3.656
265703.000			25.593			-3.656
265804.000			25.593			-3.656
265904.000			25.593			-3.656
266005.000			25.593			-3.656
266104.000			25.592			-3.656
266204.000			25.591			-3.656
266305.000			25.591			-3.656
266404.000			25.590			-3.656
266504.000			25.591			-3.656
266604.000			25.591			-3.656
266704.000			25.590			-3.656
266804.000			25.591			-3.656
266905.000			25.590			-3.656
267004.000			25.589			-3.656
267104.000			25.589			-3.656
267205.000			25.589			-3.656
267304.000			25.589			-3.656
267404.000			25.588			-3.655
267504.000			25.588			-3.655
267604.000			25.587			-3.655
267704.000			25.588			-3.655
267805.000			25.588			-3.655
267904.000			25.587			-3.655
268004.000			25.586			-3.655
268105.000			25.587			-3.655
268204.000			25.586			-3.655
268304.000			25.586			-3.655
268404.000			25.585			-3.655
268504.000			25.585			-3.655
268603.000			25.584			-3.655
268705.000			25.584			-3.655
268804.000			25.584			-3.655
268905.000			25.584			-3.655
269004.000			25.584			-3.655
269104.000			25.583			-3.655
269205.000			25.583			-3.655
269304.000			25.582			-3.655
269404.000			25.582			-3.655
269504.000			25.582			-3.655
269604.000			25.582			-3.655
269704.000			25.582			-3.655
269805.000			25.581			-3.654
269904.000			25.582			-3.655
270004.000			25.581			-3.654
270105.000			25.581			-3.654
270204.000			25.580			-3.654
270304.000			25.579			-3.654
270404.000			25.580			-3.654
270504.000			25.579			-3.654
270604.000			25.579			-3.654
270705.000			25.578			-3.654
270804.000			25.578			-3.654
270904.000			25.578			-3.654
271005.000			25.576			-3.654
271104.000			25.576			-3.654
271204.000			25.577			-3.654
271304.000			25.577			-3.654
271404.000			25.577			-3.654
271504.000			25.576			-3.654
271605.000			25.576			-3.654
271704.000			25.576			-3.654
271804.000			25.577			-3.654
271905.000			25.575			-3.654
272004.000			25.574			-3.653
272105.000			25.574			-3.653
272203.000			25.574			-3.653
272304.000			25.574			-3.653
272405.000			25.574			-3.653
272504.000			25.574			-3.653
272604.000			25.573			-3.653
272705.000			25.574			-3.653
272804.000			25.574			-3.653
272904.000			25.572			-3.653
273005.000			25.571			-3.653
273103.000			25.572			-3.653
273204.000			25.572			-3.653
273305.000			25.572			-3.653
273404.000			25.571			-3.653
273504.000			25.570			-3.653
273605.000			25.570			-3.653
273704.000			25.571			-3.653
273804.000			25.571			-3.653
273905.000			25.572			-3.653
274003.000			25.570			-3.653
274104.000			25.570			-3.653
274205.000			25.569			-3.653
274304.000			25.569			-3.653
274404.000			25.569			-3.653
274505.000			25.568			-3.653
274604.000			25.567			-3.652
274704.000			25.567			-3.652
274805.000			25.567			-3.652
274903.000			25.567			-3.652
275004.000			25.566			-3.652
275103.000			25.566			-3.652
275204.000			25.566			-3.652
275305.000			25.565			-3.652
275404.000			25.565			-3.652
275504.000			25.566			-3.652
275605.000			25.565			-3.652
275704.000			25.564			-3.652
275804.000			25.565			-3.652
275905.000			25.565			-3.652
276003.000			25.564			-3.652
276104.000			25.564			-3.652
276205.000			25.562			-3.652
276304.000			25.563			-3.652
276404.000			25.563			-3.652
276505.000			25.563			-3.652
276604.000			25.563			-3.652
276704.000			25.561			-3.652
276805.000			25.561			-3.652
276903.000			25.561			-3.652
277004.000			25.561			-3.652
277105.000			25.560			-3.651
277204.000			25.560			-3.651
277304.000			25.559			-3.651
277405.000			25.559			-3.651
277504.000			25.559			-3.651
277604.000			25.559			-3.651
277705.000			25.559			-3.651
277803.000			25.557			-3.651
277904.000			25.558			-3.651
278004.000			25.557			-3.651
278104.000			25.557			-3.651
278204.000			25.557			-3.651
278304.000			25.557			-3.651
278404.000			25.557			-3.651
278505.000			25.557			-3.651
278604.000			25.556			-3.651
278704.000			25.556			-3.651
278805.000			25.556			-3.651
278903.000			25.556			-3.651
279004.000			25.556			-3.651
279105.000			25.555			-3.651
279204.000			25.555			-3.651
279304.000			25.553			-3.650
279405.000			25.553			-3.650
279504.000			25.553			-3.650
279604.000			25.553			-3.650
279705.000			25.553			-3.650
279803.000			25.552			-3.650
279904.000			25.552			-3.650
280005.000			25.551			-3.650
280104.000			25.551			-3.650
280204.000			25.551			-3.650
280305.000			25.552			-3.650
280404.000			25.551			-3.650
280504.000			25.551			-3.650
280605.000			25.551			-3.650
280703.000			25.550			-3.650
280804.000			25.550			-3.650
280905.000			25.550			-3.650
281004.000			25.549			-3.650
281104.000			25.549			-3.650
281205.000			25.549			-3.650
281304.000			25.550			-3.650
281404.000			25.549			-3.650
281505.000			25.548			-3.650
281603.000			25.548			-3.650
281705.000			25.549			-3.650
281803.000			25.548			-3.650
281904.000			25.547			-3.650
282005.000			25.547			-3.650
282104.000			25.548			-3.650
282204.000			25.547			-3.650
282305.000			25.547			-3.650
282404.000			25.547			-3.650
282503.000			25.548			-3.650
282605.000			25.548			-3.650
282703.000			25.547			-3.650
282804.000			25.547			-3.650
282905.000			25.547			-3.650
283004.000			25.546			-3.649
283104.000			25.547			-3.650
283205.000			25.547			-3.650
283304.000			25.546			-3.649
283403.000			25.546			-3.649
283505.000			25.545			-3.649
283603.000			25.545			-3.649
283704.000			25.545			-3.649
283805.000			25.545			-3.649
283904.000			25.544			-3.649
284004.000			25.544			-3.649
284105.000			25.544			-3.649
284204.000			25.544			-3.649
284304.000			25.544			-3.649
284405.000			25.544			-3.649
284503.000			25.544			-3.649
284604.000			25.545			-3.649
284705.000			25.545			-3.649
284804.000			25.545			-3.649
284905.000			25.545			-3.649
285004.000			25.544			-3.649
285104.000			25.544			-3.649
285205.000			25.543			-3.649
285304.000			25.543			-3.649
285403.000			25.543			-3.649
285505.000			25.543			-3.649
285604.000			25.543			-3.649
285704.000			25.542			-3.649
285805.000			25.541			-3.649
285904.000			25.541			-3.649
286004.000			25.541			-3.649
286105.000			25.541			-3.649
286204.000			25.541			-3.649
286303.000			25.540			-3.649
286405.000			25.540			-3.649
286504.000			25.540			-3.649
286604.000			25.538			-3.648
286705.000			25.538			-3.648
286804.000			25.538			-3.648
286904.000			25.537			-3.648
287005.000			25.537			-3.648
287104.000			25.538			-3.648
287203.000			25.537			-3.648
287305.000			25.538			-3.648
287404.000			25.538			-3.648
287504.000			25.537			-3.648
287605.000			25.537			-3.648
287704.000			25.538			-3.648
287804.000			25.538			-3.648
287904.000			25.537			-3.648
288004.000			25.538			-3.648
288103.000			25.538			-3.648
288204.000			25.536			-3.648
288303.000			25.537			-3.648
288405.000			25.538			-3.648
288504.000			25.537			-3.648
288604.000			25.536			-3.648
288705.000			25.535			-3.648
288804.000			25.535			-3.648
288904.000			25.535			-3.648
289005.000			25.535			-3.648
289104.000			25.535			-3.648
289203.000			25.533			-3.648
289305.000			25.533			-3.648
289404.000			25.533			-3.648
289504.000			25.532			-3.647
289605.000			25.532			-3.647
289704.000			25.531			-3.647
289804.000			25.530			-3.647
289905.000			25.531			-3.647
290004.000			25.531			-3.647
290103.000			25.530			-3.647
290205.000			25.530			-3.647
290304.000			25.529			-3.647
290404.000			25.530			-3.647
290505.000			25.530			-3.647
290604.000			25.529			-3.647
290704.000			25.528			-3.647
290805.000			25.527			-3.647
290904.000			25.527			-3.647
291003.000			25.527			-3.647
291105.000			25.527			-3.647
291204.000			25.527			-3.647
291305.000			25.527			-3.647
291404.000			25.526			-3.647
291504.000			25.525			-3.646
291605.000			25.525			-3.646
291704.000			25.524			-3.646
291804.000			25.523			-3.646
291904.000			25.522			-3.646
292004.000			25.522			-3.646
292103.000			25.522			-3.646
292205.000			25.523			-3.646
292304.000			25.522			-3.646
292404.000			25.521			-3.646
292505.000			25.520			-3.646
292604.000			25.519			-3.646
292704.000			25.519			-3.646
292804.000			25.519			-3.646
292904.000			25.519			-3.646
293003.000			25.519			-3.646
293105.000			25.519			-3.646
293204.000			25.519			-3.646
293304.000			25.517			-3.645
293405.000			25.517			-3.645
293504.000			25.517			-3.645
293604.000			25.517			-3.645
293704.000			25.516			-3.645
293804.000			25.515			-3.645
293903.000			25.515			-3.645
294005.000			25.515			-3.645
294104.000			25.514			-3.645
294204.000			25.515			-3.645
294305.000			25.515			-3.645
294404.000			25.514			-3.645
294505.000			25.514			-3.645
294604.000			25.512			-3.645
294704.000			25.512			-3.645
294804.000			25.512			-3.645
294904.000			25.512			-3.645
295004.000			25.512			-3.645
295105.000			25.512			-3.645
295204.000			25.512			-3.645
295304.000			25.511			-3.644
295405.000			25.511			-3.644
295504.000			25.511			-3.644
295604.000			25.511			-3.644
295704.000			25.511			-3.644
295804.000			25.510			-3.644
295904.000			25.509			-3.644
296005.000			25.507			-3.644
296104.000			25.507			-3.644
296204.000			25.508			-3.644
296305.000			25.508			-3.644
296404.000			25.508			-3.644
296504.000			25.508			-3.644
296604.000			25.508			-3.644
296704.000			25.508			-3.644
296804.000			25.507			-3.644
296905.000			25.507			-3.644
297004.000			25.508			-3.644
297104.000			25.508			-3.644
297205.000			25.506			-3.644
297304.000			25.506			-3.644
297404.000			25.506			-3.644
297503.000			25.506			-3.644
297604.000			25.505			-3.644
297703.000			25.504			-3.643
297804.000			25.505			-3.644
297904.000			25.504			-3.643
298005.000			25.504			-3.643
298104.000			25.504			-3.643
298204.000			25.504			-3.643
298305.000			25.503			-3.643
298403.000			25.503			-3.643
298504.000			25.503			-3.643
298604.000			25.502			-3.643
298704.000			25.503			-3.643
298804.000			25.502			-3.643
298905.000			25.503			-3.643
299004.000			25.502			-3.643
299104.000			25.501			-3.643
299205.000			25.500			-3.643
299303.000			25.499			-3.643
299404.000			25.500			-3.643
299504.000			25.500			-3.643
299604.000			25.500			-3.643
299704.000			25.499			-3.643
299805.000			25.498			-3.643
299904.000			25.498			-3.643
